Timestamp,Accel_X,Accel_Y,Accel_Z,UserAccel_X,UserAccel_Y,UserAccel_Z,Gyro_X,Gyro_Y,Gyro_Z
0.000000,0.030480,0.096211,9.821260,0.027011,0.099654,0.009649,-0.035396,0.210249,-0.002366
0.040000,0.047033,0.093984,9.951659,0.031182,0.068348,0.140366,0.139812,0.179154,0.110245
0.080000,0.119179,0.037979,10.287497,0.121362,0.034155,0.498670,0.264701,0.118308,0.185788
0.120000,0.108096,-0.008672,10.711565,0.100025,-0.014655,0.867651,0.365677,0.070289,0.230959
0.160000,0.127666,-0.004318,10.884207,0.122486,-0.004316,1.052064,0.314606,-0.007248,0.293670
0.200000,0.103947,-0.047282,10.582995,0.102993,-0.048656,0.748601,0.330914,-0.062971,0.288832
0.240000,0.126850,-0.054005,9.972004,0.119240,-0.061870,0.191057,0.282675,-0.128831,0.171348
0.280000,0.048929,-0.131473,9.771081,0.056609,-0.137100,-0.045950,0.091950,-0.178148,0.084140
0.320000,-0.016467,-0.121991,9.833566,-0.006776,-0.125483,0.042331,-0.051744,-0.185290,-0.015261
0.360000,-0.044467,-0.056926,9.868608,-0.048795,-0.057087,0.043176,-0.193257,-0.162977,-0.124771
0.400000,-0.141225,-0.106118,10.000476,-0.124844,-0.102595,0.184042,-0.241366,-0.173876,-0.174510
0.440000,-0.175213,-0.027767,9.908591,-0.180328,-0.032010,0.088215,-0.352296,-0.028463,-0.197948
0.480000,-0.146989,-0.019065,9.803715,-0.135708,-0.019901,0.008047,-0.334968,0.021740,-0.324212
0.520000,-0.098126,0.030069,9.785897,-0.113306,0.008741,-0.003307,-0.319984,0.061690,-0.229018
0.560000,-0.066435,0.073625,9.748953,-0.062472,0.063119,-0.048233,-0.174670,0.153995,-0.118697
0.600000,-0.027443,0.070199,9.776502,-0.041975,0.076941,-0.039654,-0.084520,0.155947,-0.065459
0.640000,-0.006143,0.084412,9.762545,-0.004035,0.096108,-0.042610,0.005173,0.164125,0.033333
0.680000,-0.035367,0.033854,10.011784,-0.032831,0.037836,0.196721,0.153091,0.170756,0.067797
0.720000,0.116936,0.013628,10.404291,0.108277,0.024460,0.614770,0.293316,0.157655,0.213692
0.760000,0.124139,0.052236,10.751639,0.121209,0.056819,0.941769,0.303003,0.060422,0.269604
0.800000,0.143091,-0.024797,10.781066,0.143758,-0.015101,0.943164,0.383548,-0.042091,0.254629
0.840000,0.101934,-0.030834,10.412903,0.105975,-0.027564,0.596256,0.299201,-0.097270,0.199410
0.880000,0.104998,-0.080760,10.062010,0.108944,-0.077609,0.244112,0.241669,-0.115593,0.168572
0.920000,0.039330,-0.061924,9.800244,0.015754,-0.063396,-0.017814,0.088238,-0.161241,0.036094
0.960000,-0.033010,-0.156100,9.878047,-0.016257,-0.154032,0.078286,-0.059582,-0.149796,-0.066439
1.000000,-0.064810,-0.043763,9.912679,-0.052785,-0.034740,0.070044,-0.195625,-0.144081,-0.100936
1.040000,-0.064018,-0.049878,9.874333,-0.075787,-0.062027,0.057192,-0.226814,-0.085703,-0.166258
1.080000,-0.092719,-0.053333,9.937468,-0.103738,-0.057363,0.123924,-0.347858,0.015626,-0.264424
1.120000,-0.113610,-0.025633,9.785752,-0.104385,-0.020188,-0.037987,-0.253827,-0.014275,-0.282278
1.160000,-0.112104,0.024673,9.747955,-0.094580,0.033535,-0.080859,-0.294822,0.165459,-0.240176
1.200000,-0.063592,0.046737,9.727428,-0.076315,0.061409,-0.057660,-0.231249,0.173718,-0.141017
1.240000,-0.010832,0.066717,9.763952,-0.000364,0.082122,-0.047175,-0.127481,0.253993,-0.092014
1.280000,-0.035128,0.053575,9.917010,-0.030217,0.043100,0.062306,0.095353,0.147982,0.080207
1.320000,0.046386,0.103094,10.094863,0.045425,0.093681,0.251757,0.181727,0.163453,0.120010
1.360000,0.135567,0.024086,10.483649,0.146293,0.029929,0.675778,0.312083,0.107510,0.216276
1.400000,0.106444,0.013065,10.815091,0.097200,-0.000596,0.990531,0.412020,0.063930,0.222241
1.440000,0.115739,-0.015611,10.702709,0.115530,-0.021779,0.899241,0.363866,-0.019636,0.263093
1.480000,0.132764,-0.022354,10.316775,0.141585,-0.024386,0.499701,0.301641,-0.088878,0.228207
1.520000,0.054685,-0.059031,9.875270,0.062624,-0.067651,0.074436,0.230476,-0.126558,0.088014
1.560000,0.010439,-0.088669,9.789658,-0.002531,-0.094853,-0.010836,0.089707,-0.180016,0.026455
1.600000,0.008214,-0.086427,9.798099,0.011001,-0.087964,-0.000064,-0.110651,-0.191541,-0.056677
1.640000,-0.071021,-0.031518,9.860017,-0.077166,-0.029117,0.016371,-0.159770,-0.134209,-0.158434
1.680000,-0.108051,-0.012277,9.826913,-0.107951,-0.011205,0.026522,-0.296893,-0.111983,-0.184935
1.720000,-0.195276,-0.018446,9.874649,-0.177730,-0.002366,0.041814,-0.298858,-0.033784,-0.264415
1.760000,-0.113181,0.014719,9.793293,-0.120650,0.022726,-0.008074,-0.325541,-0.002130,-0.221949
1.800000,-0.065854,0.134433,9.702727,-0.076593,0.116431,-0.096350,-0.247409,0.107479,-0.187714
1.840000,-0.056664,0.074060,9.730889,-0.075089,0.082335,-0.086899,-0.188048,0.126106,-0.132745
1.880000,-0.074976,0.066054,9.785462,-0.055970,0.084560,0.001437,-0.096648,0.177080,-0.013830
1.920000,-0.016156,0.080464,9.884603,0.015429,0.071424,0.061309,0.103953,0.141764,0.016035
1.960000,0.060487,0.076913,10.163829,0.054096,0.074427,0.356551,0.240915,0.142795,0.149299
2.000000,0.090321,-0.048309,10.543955,0.096314,-0.051358,0.744971,0.286401,0.116991,0.193279
2.040000,0.089226,0.039283,10.806685,0.103526,0.040858,1.011994,0.341141,0.004685,0.244821
2.080000,0.166592,-0.050559,10.789625,0.165517,-0.059667,0.940198,0.270676,-0.076404,0.226708
2.120000,0.098621,-0.055937,10.224367,0.103114,-0.071234,0.415053,0.269634,-0.088357,0.197723
2.160000,-0.007158,-0.117324,9.826773,0.005604,-0.112110,0.018303,0.131100,-0.130337,0.120723
2.200000,0.013860,-0.095325,9.847738,0.014688,-0.101654,0.020279,0.052102,-0.166296,0.030295
2.240000,-0.030217,-0.075610,9.895408,-0.035882,-0.086795,0.102241,-0.091113,-0.186281,-0.066906
2.280000,-0.038907,-0.040738,9.918599,-0.040657,-0.034961,0.085913,-0.222642,-0.157583,-0.142155
2.320000,-0.109200,0.016704,9.834806,-0.111025,0.001608,0.025521,-0.270492,-0.093338,-0.259313
2.360000,-0.120687,0.062691,9.857057,-0.125121,0.051539,0.074733,-0.341544,-0.016837,-0.233842
2.400000,-0.075151,0.015368,9.767436,-0.058237,0.027788,-0.031954,-0.327066,0.003860,-0.283143
2.440000,-0.123417,0.061652,9.717745,-0.122904,0.045702,-0.070352,-0.255300,0.088121,-0.273080
2.480000,-0.027026,0.083148,9.731742,-0.029426,0.095044,-0.079881,-0.173107,0.198754,-0.051985
2.520000,-0.009398,0.047343,9.829295,-0.005618,0.054218,0.035166,0.007765,0.185868,-0.043863
2.560000,0.016144,0.053411,9.834626,0.024438,0.046575,0.042700,0.087612,0.206797,0.068775
2.600000,0.053390,0.058850,10.161830,0.060852,0.048435,0.345986,0.246878,0.164236,0.111371
2.640000,0.146396,0.034034,10.726132,0.149330,0.033047,0.915254,0.353250,0.067267,0.212573
2.680000,0.142998,-0.064954,10.853620,0.133854,-0.058656,1.019437,0.318899,-0.001383,0.255985
2.720000,0.145780,0.001522,10.683981,0.130507,0.004123,0.850684,0.287777,-0.033746,0.241604
2.760000,0.127404,-0.051346,10.193262,0.114169,-0.047562,0.382034,0.223815,-0.100459,0.146039
2.800000,0.043458,-0.040725,9.839601,0.059066,-0.049138,0.019608,0.196869,-0.134816,0.088375
2.840000,-0.038710,-0.131156,9.743268,-0.029317,-0.127097,-0.038581,-0.010949,-0.180366,0.016298
2.880000,-0.084752,-0.100853,9.903876,-0.091326,-0.094334,0.079955,-0.164857,-0.163082,-0.084875
2.920000,-0.024763,-0.093404,9.953867,-0.037770,-0.078631,0.135653,-0.233892,-0.136272,-0.171068
2.960000,-0.114051,-0.043026,9.899939,-0.104383,-0.037084,0.070857,-0.404366,-0.071357,-0.207653
3.000000,-0.115789,-0.002191,9.774017,-0.117622,-0.001007,-0.029858,-0.378638,-0.020569,-0.253270
3.040000,-0.067805,0.045785,9.759135,-0.056486,0.057089,-0.044915,-0.280230,0.067509,-0.188698
3.080000,-0.113125,0.042673,9.668807,-0.115890,0.060121,-0.135367,-0.273543,0.123805,-0.183710
3.120000,-0.126314,0.061941,9.744981,-0.119880,0.052141,-0.093710,-0.136667,0.153598,-0.071196
3.160000,-0.050004,0.135610,9.808672,-0.051834,0.145614,-0.006986,0.016153,0.203695,0.027139
3.200000,0.020764,0.052023,9.912646,0.032882,0.065117,0.132565,0.151198,0.122131,0.052510
3.240000,0.074653,0.043254,10.261388,0.090991,0.027559,0.438500,0.239163,0.133342,0.195469
3.280000,0.185206,-0.020181,10.727567,0.154223,-0.028669,0.926833,0.344440,0.035092,0.215116
3.320000,0.145885,0.009617,10.893103,0.145191,-0.000638,1.061411,0.393080,-0.032973,0.219515
3.360000,0.053073,-0.008287,10.528377,0.031726,-0.013339,0.707602,0.284840,-0.099505,0.213474
3.400000,0.179407,-0.080537,9.983493,0.164316,-0.093651,0.148684,0.219663,-0.119641,0.172133
3.440000,0.010792,-0.047966,9.822610,0.027148,-0.056800,-0.008167,0.111949,-0.237717,0.035270
3.480000,0.032917,-0.080777,9.911368,0.029299,-0.077333,0.082621,-0.000981,-0.174584,-0.014891
3.520000,-0.049921,-0.135508,9.914721,-0.036976,-0.124858,0.082031,-0.154629,-0.159865,-0.117686
3.560000,-0.093641,-0.046335,9.906068,-0.090679,-0.033503,0.079767,-0.268763,-0.146721,-0.158103
3.600000,-0.140087,-0.034070,9.828248,-0.121238,-0.032673,0.032125,-0.379351,-0.050157,-0.256770
3.640000,-0.168692,-0.038089,9.796872,-0.152950,-0.027089,0.009743,-0.382764,-0.021336,-0.213429
3.680000,-0.153528,0.057794,9.736041,-0.144980,0.065771,-0.057354,-0.304391,0.082080,-0.209947
3.720000,-0.086935,0.088254,9.774323,-0.081478,0.089777,-0.050291,-0.238514,0.101163,-0.160361
3.760000,-0.075941,0.056131,9.677407,-0.076330,0.042152,-0.088125,-0.111424,0.233828,-0.034048
3.800000,0.051619,0.073260,9.832378,0.061981,0.088365,0.022686,0.034729,0.204856,0.083808
3.840000,0.062212,0.076500,9.971180,0.060719,0.076203,0.166497,0.238864,0.165129,0.114122
3.880000,0.168182,0.035140,10.432619,0.156825,0.047654,0.598142,0.259368,0.083151,0.173721
3.920000,0.105250,0.000480,10.709459,0.102511,0.006044,0.901803,0.378715,0.040140,0.253660
3.960000,0.100665,-0.005181,10.792382,0.101338,-0.014479,0.989752,0.386655,-0.029586,0.205338
4.000000,0.125065,-0.020328,10.470731,0.121649,-0.011845,0.634411,0.327222,-0.082743,0.177475
4.040000,0.050424,-0.054082,9.991313,0.064773,-0.051448,0.183151,0.186186,-0.131419,0.190356
4.080000,0.068555,-0.133912,9.781321,0.059035,-0.135323,-0.023610,0.091157,-0.167599,0.079328
4.120000,0.013640,-0.136434,9.736922,0.025617,-0.143446,-0.063294,-0.062844,-0.167800,-0.062266
4.160000,-0.013670,-0.129621,9.912263,-0.029189,-0.124143,0.096550,-0.120877,-0.159061,-0.035455
4.200000,-0.048442,-0.075161,9.942821,-0.056149,-0.087769,0.139450,-0.270836,-0.095527,-0.243718
4.240000,-0.086736,-0.045375,9.805462,-0.092302,-0.040923,0.002019,-0.347148,-0.060241,-0.224803
4.280000,-0.128790,0.004604,9.795660,-0.134791,-0.000240,-0.043344,-0.291551,-0.001887,-0.270394
4.320000,-0.067142,0.039000,9.770853,-0.067123,0.040899,-0.040125,-0.306090,0.151885,-0.157650
4.360000,-0.055421,0.072086,9.759383,-0.047558,0.064677,-0.041653,-0.183201,0.160287,-0.158606
4.400000,-0.052899,0.097069,9.801440,-0.043481,0.076794,0.011342,-0.051697,0.230249,-0.060516
4.440000,0.025272,0.110116,9.890914,0.007758,0.112892,0.076944,0.076005,0.168569,-0.007417
4.480000,0.064686,0.016173,9.989211,0.063653,0.016333,0.190406,0.190495,0.222247,0.200827
4.520000,0.122146,0.049970,10.463945,0.133295,0.054290,0.661312,0.316648,0.101999,0.189692
4.560000,0.126549,0.019004,10.842664,0.121382,0.024863,1.049695,0.324902,0.068107,0.259977
4.600000,0.120637,-0.061506,10.760611,0.117208,-0.054513,0.946673,0.375763,-0.036439,0.244679
4.640000,0.090470,-0.029830,10.304961,0.093763,-0.029644,0.521027,0.278960,-0.097781,0.188744
4.680000,0.044719,-0.064139,9.902160,0.053699,-0.056369,0.083930,0.227673,-0.155435,0.067126
4.720000,-0.007550,-0.087644,9.760197,-0.014905,-0.080177,-0.038873,0.089758,-0.192263,0.034843
4.760000,0.005915,-0.182072,9.850229,-0.003545,-0.150417,0.025896,-0.063443,-0.145837,-0.065238
4.800000,-0.097833,-0.021958,9.850917,-0.101057,-0.035808,0.031211,-0.208431,-0.145889,-0.137383
4.840000,-0.099900,-0.018204,9.854038,-0.100615,-0.034642,0.041958,-0.266297,-0.068332,-0.149477
4.880000,-0.138802,0.006908,9.847368,-0.130978,0.000421,0.020445,-0.329112,0.000819,-0.227983
4.920000,-0.088441,-0.090565,9.800649,-0.093240,-0.081826,-0.040490,-0.435500,0.087194,-0.216350
4.960000,-0.112191,0.019788,9.781019,-0.105844,0.032422,-0.054351,-0.303317,0.121463,-0.208288
5.000000,-0.102912,0.010626,9.703094,-0.090187,0.026271,-0.080689,-0.169938,0.110555,-0.164398
5.040000,0.025895,0.124563,9.845028,0.014639,0.118172,0.047136,-0.035475,0.168974,-0.039711
5.080000,-0.002808,0.056555,9.911400,0.007491,0.043902,0.111059,0.115337,0.172613,0.045195
5.120000,0.060209,0.108734,10.132201,0.079178,0.107073,0.309429,0.263867,0.141437,0.153785
5.160000,0.156461,0.075704,10.581588,0.143371,0.067126,0.782033,0.324307,0.126268,0.204252
5.200000,0.079994,0.019451,10.896755,0.097439,0.015003,1.097985,0.285552,0.052902,0.198300
5.240000,0.107875,0.003230,10.646630,0.111773,0.010939,0.851313,0.340991,-0.056373,0.277339
5.280000,0.068570,-0.069232,10.187804,0.079526,-0.079326,0.371826,0.306154,-0.041833,0.188405
5.320000,0.052301,-0.084399,9.913391,0.059539,-0.093854,0.090698,0.165501,-0.169982,0.105923
5.360000,0.030228,-0.061953,9.800697,0.007987,-0.052049,0.014929,0.035391,-0.187399,-0.012224
5.400000,-0.010486,-0.096208,9.889690,-0.009470,-0.104279,0.089975,-0.122983,-0.203962,-0.091516
5.440000,-0.093433,-0.101810,9.863858,-0.097032,-0.100334,0.091759,-0.200221,-0.183034,-0.189254
5.480000,-0.061355,-0.047819,9.815693,-0.069260,-0.045210,0.053527,-0.324094,-0.115437,-0.259748
5.520000,-0.078091,-0.027581,9.776044,-0.071623,-0.031487,-0.043649,-0.331524,0.019104,-0.244625
5.560000,-0.094877,0.085868,9.772091,-0.105629,0.082271,-0.044218,-0.317675,0.081441,-0.250159
5.600000,-0.109122,0.085678,9.783170,-0.112882,0.076791,-0.030278,-0.258474,0.093937,-0.163328
5.640000,-0.044789,0.046614,9.829851,-0.052327,0.055107,-0.011889,-0.134500,0.165865,-0.117256
5.680000,-0.016019,0.055545,9.812621,-0.008771,0.049889,0.036136,-0.008606,0.204036,-0.007025
5.720000,0.099440,0.073543,9.896630,0.095000,0.085142,0.128233,0.160320,0.107710,0.089732
5.760000,0.078961,0.092156,10.292639,0.079051,0.093944,0.505106,0.259893,0.184381,0.182681
5.800000,0.162407,0.040145,10.565524,0.151109,0.041266,0.797917,0.350933,0.104789,0.203152
5.840000,0.117914,-0.017155,10.859630,0.123317,-0.026855,1.061897,0.327006,0.028085,0.276919
5.880000,0.133270,-0.072458,10.573389,0.112948,-0.072551,0.751732,0.300623,-0.030200,0.197044
5.920000,0.078492,-0.069934,10.181000,0.075105,-0.067316,0.365069,0.251947,-0.187186,0.179891
5.960000,0.037417,-0.050014,9.812390,0.038669,-0.064273,-0.018161,0.158114,-0.172493,0.060731
6.000000,0.024270,-0.098405,9.857755,0.026691,-0.094115,0.040340,0.015944,-0.142249,-0.003622
6.040000,-0.068488,-0.048229,9.841103,-0.068420,-0.043518,0.039184,-0.158168,-0.166146,-0.070154
6.080000,-0.063231,-0.058923,9.896274,-0.056945,-0.040158,0.096793,-0.226649,-0.103659,-0.161954
6.120000,-0.061680,-0.024498,9.869172,-0.068347,-0.022329,0.050423,-0.344257,-0.022817,-0.200687
6.160000,-0.137848,0.007502,9.775495,-0.137728,0.016899,-0.003901,-0.329708,0.024878,-0.259042
6.200000,-0.053950,-0.011643,9.700340,-0.073386,-0.009136,-0.046106,-0.311144,0.065481,-0.201119
6.240000,-0.055032,0.045770,9.774743,-0.050699,0.043371,-0.043062,-0.246345,0.148486,-0.191904
6.280000,-0.016959,0.032924,9.758040,-0.015752,0.043775,-0.056646,-0.138080,0.118581,-0.100896
6.320000,-0.018400,0.083232,9.883812,-0.014057,0.091461,0.042426,0.018652,0.194553,0.014370
6.360000,0.066202,0.025641,10.008131,0.047511,0.041636,0.184203,0.151514,0.185358,0.131945
6.400000,0.071097,0.050890,10.309994,0.085554,0.055989,0.493810,0.228704,0.124972,0.169366
6.440000,0.176982,0.011929,10.813208,0.176045,0.021374,1.009450,0.348594,0.094042,0.256948
6.480000,0.122591,0.034418,10.857354,0.119461,0.012977,1.063577,0.384010,-0.002943,0.256442
6.520000,0.090707,-0.056431,10.477976,0.101987,-0.071471,0.673582,0.339316,-0.075626,0.234034
6.560000,0.070404,-0.033588,10.067454,0.043972,-0.047007,0.238352,0.238148,-0.081289,0.137716
6.600000,-0.001379,-0.121117,9.844771,0.007926,-0.108169,0.025498,0.094658,-0.199925,0.065713
6.640000,-0.030231,-0.110423,9.865613,-0.030566,-0.108649,0.036929,-0.025419,-0.137605,-0.023728
6.680000,-0.027915,-0.087206,9.885901,-0.044755,-0.075174,0.073767,-0.166097,-0.120128,-0.105699
6.720000,-0.138934,0.003264,9.732537,-0.135183,-0.015164,-0.059472,-0.265951,-0.089377,-0.216851
6.760000,-0.133418,-0.040060,9.838789,-0.134855,-0.048371,0.005577,-0.306969,-0.064161,-0.278089
6.800000,-0.178620,-0.055498,9.841913,-0.175172,-0.044972,0.010511,-0.351323,0.029096,-0.312614
6.840000,-0.063632,0.013877,9.706675,-0.063100,0.010182,-0.107035,-0.361827,0.062587,-0.196702
6.880000,-0.060531,0.036315,9.763788,-0.071345,0.051141,-0.057332,-0.193415,0.124201,-0.126964
6.920000,-0.027174,0.131760,9.813966,-0.022958,0.133124,-0.006053,-0.082206,0.177313,-0.127520
6.960000,-0.044204,0.089263,9.818090,-0.017660,0.091019,0.017458,0.048364,0.152072,0.033603
7.000000,0.094509,0.054081,9.934744,0.094839,0.046684,0.129945,0.139769,0.148885,0.113686
7.040000,0.141305,0.054008,10.370024,0.140675,0.044130,0.578218,0.253816,0.075768,0.235643
7.080000,0.120192,0.067227,10.824769,0.118238,0.067024,1.020045,0.317542,0.064352,0.235838
7.120000,0.102506,-0.021138,10.874342,0.104339,-0.018898,1.043725,0.328734,0.022751,0.263683
7.160000,0.110586,-0.080646,10.329776,0.119211,-0.048293,0.502955,0.284674,-0.027337,0.201084
7.200000,0.090127,-0.061263,9.961546,0.092578,-0.076884,0.140376,0.170273,-0.176629,0.126333
7.240000,0.071164,-0.063580,9.747415,0.053512,-0.057004,-0.081768,0.144472,-0.200979,0.080105
7.280000,-0.000516,-0.093620,9.832621,-0.000096,-0.094642,0.029927,-0.013306,-0.178978,-0.009341
7.320000,-0.028850,-0.018787,9.852639,-0.035379,-0.041378,0.066105,-0.179224,-0.127309,-0.172024
7.360000,-0.129654,-0.025715,9.976261,-0.119317,-0.013774,0.169398,-0.288412,-0.105488,-0.171014
7.400000,-0.092935,0.001984,9.819433,-0.090020,0.001772,0.010987,-0.287556,-0.005098,-0.273781
7.440000,-0.141495,0.013233,9.836017,-0.131489,0.008264,0.012502,-0.295088,0.053112,-0.315534
7.480000,-0.162312,0.013242,9.786838,-0.175248,0.002317,-0.033391,-0.313720,0.049996,-0.207906
7.520000,-0.095854,0.059927,9.748667,-0.080297,0.059914,-0.081545,-0.186257,0.155009,-0.123133
7.560000,-0.035379,0.070282,9.745006,-0.039103,0.058526,-0.024696,-0.071056,0.143060,-0.092317
7.600000,0.035588,0.050725,9.836034,0.032181,0.054881,0.041995,0.064689,0.162526,-0.007505
7.640000,0.096385,0.063946,10.048589,0.093625,0.058511,0.240416,0.194786,0.138858,0.127835
7.680000,0.083655,0.061383,10.490771,0.107104,0.057243,0.671183,0.292945,0.122091,0.192225
7.720000,0.158349,-0.006254,10.868306,0.178579,-0.005343,1.016418,0.351421,0.032534,0.287587
7.760000,0.102249,-0.056277,10.678300,0.101078,-0.059512,0.887846,0.347245,-0.051689,0.243757
7.800000,0.028219,-0.084531,10.255687,0.037451,-0.075785,0.459884,0.326301,-0.039532,0.224291
7.840000,0.064075,-0.020705,9.868783,0.070503,-0.017719,0.067249,0.157103,-0.177391,0.135797
7.880000,-0.003061,-0.075548,9.781712,0.001184,-0.062680,-0.013376,0.080137,-0.166058,0.083582
7.920000,-0.072943,-0.110634,9.848523,-0.062413,-0.106219,0.056288,-0.119292,-0.150958,-0.088923
7.960000,-0.093731,-0.013670,9.880118,-0.081478,-0.025052,0.069200,-0.204504,-0.134978,-0.153788
8.000000,-0.127426,-0.042995,9.868192,-0.127425,-0.047199,0.038519,-0.271808,-0.113600,-0.263578
8.040000,-0.158658,0.061393,9.849305,-0.139597,0.058314,0.036918,-0.330169,-0.047691,-0.223687
8.080000,-0.074962,0.013386,9.783002,-0.069904,0.029375,-0.009803,-0.346598,0.070362,-0.207370
8.120000,-0.096988,0.069858,9.708755,-0.090313,0.066657,-0.097321,-0.265749,0.146499,-0.169740
8.160000,-0.066008,0.094595,9.682377,-0.065771,0.095223,-0.106851,-0.119045,0.159497,-0.124179
8.200000,0.059257,0.129515,9.795177,0.035385,0.124141,-0.034484,-0.054336,0.142819,-0.070815
8.240000,0.016000,0.077248,9.901784,0.025820,0.063415,0.062361,0.118158,0.175953,0.069666
8.280000,0.043651,0.099538,10.174424,0.039587,0.103628,0.396327,0.252051,0.187465,0.139025
8.320000,0.068759,0.015194,10.638809,0.066551,0.018350,0.824229,0.298531,0.056537,0.249230
8.360000,0.122778,0.005032,10.846637,0.117179,-0.004149,1.052202,0.400834,0.008858,0.236322
8.400000,0.062726,-0.030488,10.743513,0.064859,-0.024454,0.932255,0.395067,-0.050559,0.224322
8.440000,0.070080,-0.023787,10.183235,0.055666,-0.024661,0.374946,0.297769,-0.081645,0.254468
8.480000,0.048772,-0.101529,9.868307,0.041919,-0.081563,0.085128,0.188507,-0.173793,0.135138
8.520000,0.048505,-0.033401,9.873260,0.041493,-0.030320,0.039084,-0.029884,-0.161798,0.047976
8.560000,-0.014852,-0.022706,9.902683,-0.000710,-0.035757,0.095717,-0.154731,-0.124935,-0.097580
8.600000,-0.059543,-0.054909,9.893008,-0.060506,-0.058264,0.092408,-0.236729,-0.174897,-0.200293
8.640000,-0.113794,-0.054050,9.878637,-0.108696,-0.063044,0.066311,-0.336422,-0.112652,-0.194203
8.680000,-0.145623,0.036247,9.799488,-0.137007,0.026684,0.006900,-0.330917,-0.007029,-0.205018
8.720000,-0.107088,-0.021491,9.788059,-0.100823,-0.034983,-0.018267,-0.413468,0.095473,-0.272915
8.760000,-0.034576,0.073531,9.661839,-0.034017,0.077003,-0.111415,-0.236557,0.136523,-0.197767
8.800000,-0.039998,0.057792,9.692888,-0.044566,0.048369,-0.069970,-0.147630,0.199849,-0.129112
8.840000,-0.006557,0.140147,9.853927,-0.016373,0.117670,0.063329,-0.023584,0.132214,0.009207
8.880000,0.048792,0.032545,9.931433,0.039445,0.032808,0.132080,0.186041,0.181053,0.124622
8.920000,0.078886,0.024095,10.252637,0.075959,0.037292,0.477778,0.235640,0.046518,0.163867
8.960000,0.127643,0.038196,10.630962,0.127086,0.044146,0.830912,0.274149,0.112879,0.219330
9.000000,0.093845,0.022732,10.832044,0.097090,0.018048,1.032718,0.363709,0.038984,0.191298
9.040000,0.120333,-0.066401,10.587564,0.122809,-0.049784,0.778795,0.334117,-0.076290,0.201839
9.080000,0.093202,-0.074742,10.100272,0.101004,-0.067122,0.277989,0.239664,-0.194577,0.220135
9.120000,0.050212,-0.049101,9.792845,0.054496,-0.045803,-0.051397,0.199382,-0.170310,0.106811
9.160000,-0.031562,-0.048680,9.852305,-0.035100,-0.049779,0.033740,-0.001027,-0.143152,0.022553
9.200000,-0.037889,-0.065671,9.892866,-0.053293,-0.083636,0.102549,-0.111914,-0.148708,-0.112639
9.240000,-0.104777,-0.066100,9.891758,-0.103280,-0.072978,0.068428,-0.245447,-0.064436,-0.190434
9.280000,-0.122766,-0.080095,9.922115,-0.114689,-0.068956,0.084103,-0.289932,-0.068324,-0.233762
9.320000,-0.130201,0.049635,9.862064,-0.139893,0.010959,0.074469,-0.359619,0.071752,-0.240054
9.360000,-0.091303,0.058276,9.788080,-0.071279,0.058441,-0.000628,-0.348592,0.019274,-0.184925
9.400000,-0.064258,0.047188,9.692393,-0.074689,0.063992,-0.089185,-0.211224,0.114285,-0.187465
9.440000,-0.102337,0.037416,9.704877,-0.088008,0.047800,-0.093833,-0.106125,0.134417,-0.086359
9.480000,-0.025785,0.123113,9.836957,-0.032357,0.133438,0.019493,0.045833,0.205018,-0.008100
9.520000,0.084738,-0.004925,10.089565,0.089499,0.008555,0.249901,0.137121,0.128169,0.052114
9.560000,0.088646,0.083750,10.415976,0.085437,0.078620,0.588143,0.279354,0.151101,0.216853
9.600000,0.123264,0.004554,10.767740,0.102432,0.031223,0.950030,0.285042,0.079492,0.290188
9.640000,0.145058,0.017189,10.899055,0.153435,0.007366,1.088140,0.334379,-0.006375,0.272087
9.680000,0.091793,-0.052524,10.529672,0.101799,-0.060669,0.711842,0.289032,-0.083525,0.228460
9.720000,0.041419,-0.070778,9.936389,0.040637,-0.066214,0.117381,0.237977,-0.167032,0.214959
9.760000,0.016108,-0.058628,9.859611,0.000855,-0.067785,0.023547,0.086635,-0.151048,0.086024
9.800000,0.008074,-0.093064,9.830966,0.006282,-0.082136,0.021383,-0.077770,-0.191087,-0.002050
9.840000,0.003520,-0.132341,9.848118,0.003073,-0.123917,0.032883,-0.185661,-0.131621,-0.116209
9.880000,-0.067165,0.007179,9.883366,-0.068856,0.001683,0.081536,-0.256338,-0.063800,-0.187112
9.920000,-0.137083,-0.004103,9.870281,-0.127036,-0.002008,0.058013,-0.333174,-0.054613,-0.244779
9.960000,-0.124063,0.004813,9.753214,-0.125855,0.011064,-0.051660,-0.369593,0.065234,-0.223051
10.000000,-0.106397,0.041837,9.712131,-0.102469,0.042973,-0.074078,-0.277932,0.098756,-0.249245
10.040000,-0.119926,0.127422,9.737181,-0.133151,0.114235,-0.090285,-0.164647,0.164335,-0.138572
10.080000,-0.021159,0.068005,9.833035,-0.029139,0.055205,-0.006730,-0.059777,0.137739,-0.087764
10.120000,0.021815,0.054356,9.823592,0.035053,0.050095,0.014340,-0.018096,0.160522,0.051817
10.160000,0.112520,0.090377,9.965505,0.115351,0.093931,0.148863,0.188424,0.136093,0.201331
10.200000,0.135084,0.066118,10.441401,0.129804,0.060904,0.614168,0.278901,0.149234,0.223250
10.240000,0.164912,-0.020653,10.773804,0.174727,-0.012028,0.966670,0.279680,0.033628,0.278612
10.280000,0.157944,0.031008,10.742224,0.168737,0.019319,0.928432,0.306386,-0.008114,0.273573
10.320000,0.138540,-0.024513,10.412497,0.143160,-0.034017,0.606837,0.319487,-0.095677,0.141309
10.360000,0.072716,-0.073315,9.951354,0.069272,-0.092631,0.152344,0.205320,-0.155463,0.138728
10.400000,0.045667,-0.071564,9.758652,0.035295,-0.063542,-0.061780,0.075188,-0.217178,0.065414
10.440000,-0.070270,-0.077625,9.798925,-0.072591,-0.068362,-0.021325,-0.085086,-0.231035,-0.109512
10.480000,-0.037873,-0.063762,9.898094,-0.062497,-0.069275,0.069643,-0.161218,-0.157039,-0.146864
10.520000,-0.089733,-0.035480,9.830742,-0.082966,-0.032742,0.020810,-0.328417,-0.104976,-0.210608
10.560000,-0.118972,0.013788,9.805770,-0.126375,0.003795,0.019766,-0.370438,-0.057042,-0.282520
10.600000,-0.174718,0.057236,9.802435,-0.163627,0.044059,-0.029718,-0.351884,0.044827,-0.273628
10.640000,-0.034944,0.065904,9.732506,-0.051054,0.048876,-0.062803,-0.333174,0.164688,-0.165167
10.680000,-0.038523,0.060012,9.736183,-0.052117,0.059428,-0.058781,-0.213989,0.199816,-0.241382
10.720000,0.038721,0.094855,9.741822,0.031606,0.086052,-0.057539,-0.026522,0.180024,-0.033548
10.760000,0.032304,0.108443,9.826024,0.049667,0.113613,0.050896,0.054594,0.178831,0.091995
10.800000,0.118610,0.085791,10.146183,0.111588,0.083619,0.340535,0.229151,0.166677,0.146132
10.840000,0.129345,0.031106,10.466516,0.137536,0.031640,0.644129,0.318426,0.102466,0.256100
10.880000,0.102866,0.012288,10.854047,0.098330,0.013356,1.052719,0.341192,0.047401,0.234497
10.920000,0.086414,0.048314,10.705204,0.100961,0.030075,0.868440,0.296436,-0.034692,0.214994
10.960000,0.085432,-0.039310,10.345261,0.082732,-0.025889,0.509737,0.280688,-0.104206,0.198849
11.000000,0.027474,-0.064777,9.922434,0.031009,-0.064728,0.094648,0.111676,-0.173647,0.113553
11.040000,0.060211,-0.044620,9.784879,0.067994,-0.045158,0.013578,0.028000,-0.166298,0.014179
11.080000,-0.025076,-0.086913,9.845981,-0.031002,-0.093346,0.007307,-0.086824,-0.239819,-0.072644
11.120000,-0.061265,-0.063800,9.893696,-0.060752,-0.052828,0.088439,-0.191315,-0.131709,-0.179047
11.160000,-0.147137,0.014739,9.926122,-0.145088,0.017728,0.082553,-0.311260,-0.147316,-0.244213
11.200000,-0.087413,0.005287,9.719704,-0.094785,0.011244,-0.078215,-0.366322,-0.009435,-0.282290
11.240000,-0.108122,0.049229,9.768793,-0.127162,0.071748,-0.038411,-0.355702,0.024077,-0.226834
11.280000,-0.051876,0.060106,9.757740,-0.054632,0.048481,-0.054052,-0.283729,0.154487,-0.222598
11.320000,-0.094218,0.041911,9.669099,-0.076158,0.056610,-0.122254,-0.143430,0.163610,-0.153085
11.360000,0.014332,0.098494,9.788329,0.029915,0.114526,0.010738,-0.018784,0.180834,-0.053131
11.400000,0.065997,0.030711,9.844040,0.065308,0.021235,0.081993,0.107495,0.184781,0.083423
11.440000,0.074704,0.062617,10.296381,0.064440,0.065965,0.427325,0.247598,0.111754,0.183437
11.480000,0.151368,0.063494,10.578387,0.150021,0.066497,0.801759,0.313515,0.115109,0.246459
11.520000,0.159343,0.019086,10.837832,0.154227,0.021899,1.060929,0.309264,0.033527,0.255936
11.560000,0.127426,-0.078641,10.669750,0.128014,-0.089384,0.848310,0.297222,-0.074299,0.252160
11.600000,0.068990,-0.099429,10.020592,0.059369,-0.093910,0.239069,0.278151,-0.150779,0.184143
11.640000,0.081263,-0.069867,9.783032,0.075097,-0.075818,0.005224,0.107803,-0.174075,0.120113
11.680000,-0.003190,-0.077096,9.749347,0.007005,-0.065684,-0.003165,0.003227,-0.183072,0.023675
11.720000,-0.035870,-0.056258,9.773868,-0.040348,-0.059559,-0.041986,-0.125425,-0.201253,-0.109032
11.760000,-0.095357,-0.049475,9.895410,-0.079931,-0.058502,0.106811,-0.270592,-0.144920,-0.203406
11.800000,-0.106049,0.003419,9.885754,-0.110529,-0.010632,0.062886,-0.369773,-0.090959,-0.187822
11.840000,-0.148767,-0.004060,9.815043,-0.145942,0.011431,0.006559,-0.385166,-0.009837,-0.246185
11.880000,-0.155427,0.022625,9.785794,-0.157034,0.025592,-0.025916,-0.379714,0.060435,-0.200890
11.920000,-0.134148,0.088085,9.704516,-0.137388,0.072101,-0.096416,-0.231716,0.140582,-0.211618
11.960000,-0.034705,0.063544,9.749059,-0.037522,0.054325,-0.055425,-0.123706,0.166873,-0.109046
12.000000,-0.058540,0.097115,9.826707,-0.072714,0.099105,0.034603,-0.022789,0.192062,-0.041299
12.040000,0.068629,0.048380,9.914477,0.068289,0.048342,0.120479,0.094610,0.173401,0.116269
12.080000,0.102811,0.073567,10.177285,0.100922,0.070596,0.389185,0.285054,0.120092,0.160184
12.120000,0.115790,0.039606,10.741072,0.102491,0.043336,0.900792,0.338632,0.086774,0.215816
12.160000,0.169738,-0.005170,10.850594,0.150769,-0.010642,1.048517,0.331292,-0.086090,0.308619
12.200000,0.101646,-0.008585,10.541809,0.101823,-0.013490,0.777105,0.355355,-0.083976,0.248375
12.240000,0.089582,-0.023184,10.058425,0.094703,-0.012037,0.243250,0.243720,-0.148334,0.190759
12.280000,-0.021542,-0.110481,9.747003,-0.016917,-0.105583,-0.046922,0.131541,-0.165130,0.051080
12.320000,-0.067773,-0.055845,9.776817,-0.072280,-0.051304,-0.032293,-0.045916,-0.198872,-0.066195
12.360000,-0.060187,-0.042347,9.923955,-0.058153,-0.039791,0.119346,-0.194510,-0.146402,-0.077326
12.400000,-0.093984,-0.057049,9.930935,-0.076492,-0.059748,0.091132,-0.307203,-0.098684,-0.252998
12.440000,-0.073587,-0.000478,9.907681,-0.084817,-0.002282,0.105353,-0.268041,-0.100716,-0.251141
12.480000,-0.116927,-0.009811,9.877745,-0.125081,-0.002614,0.051423,-0.374137,0.018007,-0.273856
12.520000,-0.088622,0.086660,9.730746,-0.100088,0.073257,-0.093464,-0.311544,0.041607,-0.251682
12.560000,-0.041382,-0.021558,9.670729,-0.054823,-0.021609,-0.111940,-0.214909,0.150649,-0.176584
12.600000,-0.039009,0.134067,9.761625,-0.040915,0.119431,-0.052130,-0.108781,0.157194,-0.108926
12.640000,0.030265,0.060753,9.833366,0.027659,0.046351,0.038533,0.024660,0.155242,-0.015561
12.680000,0.031798,0.063003,9.899872,0.021731,0.073595,0.114045,0.156857,0.108203,0.123477
12.720000,0.030618,0.021672,10.363003,0.042769,0.026575,0.577098,0.284078,0.111971,0.224618
12.760000,0.095338,0.063845,10.808080,0.098862,0.068018,0.981654,0.303868,0.017286,0.187242
12.800000,0.141992,-0.012101,10.834050,0.142585,-0.015234,0.971189,0.334867,-0.063322,0.254497
12.840000,0.093045,-0.047539,10.389308,0.083825,-0.054803,0.595414,0.237595,-0.081137,0.235319
12.880000,0.088676,-0.027621,10.005845,0.094062,-0.029090,0.191530,0.161510,-0.111987,0.168682
12.920000,-0.005660,-0.060598,9.878107,0.001461,-0.055089,0.061898,0.055180,-0.161535,0.060593
12.960000,-0.036825,-0.072862,9.807501,-0.032515,-0.089378,0.008101,-0.018254,-0.221510,-0.049245
13.000000,-0.048042,-0.103402,9.920624,-0.052739,-0.099018,0.082472,-0.183181,-0.159988,-0.102242
13.040000,-0.116289,-0.074737,9.906792,-0.115606,-0.082155,0.052853,-0.257863,-0.088411,-0.189074
13.080000,-0.145676,0.017985,9.846046,-0.131169,0.018357,0.048000,-0.327458,-0.048856,-0.298975
13.120000,-0.209501,0.023603,9.796550,-0.196965,0.024255,-0.048138,-0.338442,0.036061,-0.253950
13.160000,-0.076100,0.053382,9.717812,-0.077466,0.046644,-0.081254,-0.327700,0.080127,-0.212176
13.200000,-0.072393,0.094918,9.812475,-0.074092,0.079488,0.021880,-0.203477,0.134082,-0.179758
13.240000,-0.055486,0.022477,9.775925,-0.055762,0.019427,-0.031288,-0.072288,0.155456,-0.064391
13.280000,0.070283,0.064256,9.795993,0.074990,0.069144,-0.031388,0.124389,0.195840,0.056438
13.320000,0.048502,0.073408,10.067549,0.040625,0.058607,0.259633,0.177159,0.172232,0.109137
13.360000,0.086762,0.080037,10.526286,0.083072,0.075099,0.701530,0.309369,0.086073,0.212277
13.400000,0.091873,-0.025736,10.856749,0.088524,-0.027440,1.042217,0.338635,0.060070,0.214851
13.440000,0.154692,0.026896,10.795723,0.150988,0.016619,0.958666,0.322733,-0.076538,0.208471
13.480000,0.158938,0.012784,10.316907,0.142964,0.009561,0.496294,0.317608,-0.104744,0.226698
13.520000,0.096181,-0.093637,9.909096,0.106424,-0.118206,0.068485,0.250435,-0.190536,0.173568
13.560000,0.058006,-0.078065,9.762717,0.062217,-0.078083,-0.030131,0.073444,-0.210767,0.011334
13.600000,-0.046232,-0.051775,9.823797,-0.042869,-0.063272,0.017866,-0.093260,-0.217036,-0.023387
13.640000,-0.005736,-0.035080,9.862623,-0.018313,-0.039500,0.052654,-0.185725,-0.167479,-0.143069
13.680000,-0.110925,-0.103415,9.913921,-0.107188,-0.107802,0.120999,-0.287132,-0.077856,-0.277485
13.720000,-0.172523,-0.006834,9.853014,-0.164599,-0.003213,0.063156,-0.278603,-0.032369,-0.289547
13.760000,-0.130682,0.008135,9.832751,-0.129624,0.011706,0.015109,-0.318488,0.023586,-0.225147
13.800000,-0.086258,0.043491,9.715686,-0.087303,0.038525,-0.107619,-0.311164,0.100596,-0.250973
13.840000,-0.069544,0.121818,9.704525,-0.081508,0.130501,-0.107728,-0.143069,0.092277,-0.148063
13.880000,-0.016920,0.066920,9.811153,-0.013123,0.072675,-0.020027,-0.027868,0.195223,-0.038961
13.920000,0.039066,0.091135,9.859223,0.045940,0.090982,0.071289,0.115103,0.106916,0.075613
13.960000,0.075772,0.072516,10.114148,0.084870,0.060112,0.311969,0.224956,0.122158,0.156690
