Timestamp,Accel_X,Accel_Y,Accel_Z,UserAccel_X,UserAccel_Y,UserAccel_Z,Gyro_X,Gyro_Y,Gyro_Z
0.000000,-0.021874,-0.032667,9.760347,-0.036596,-0.038333,-0.039546,-0.007263,0.007813,0.126864
0.040000,-0.004299,-0.021360,9.790886,0.001970,-0.017100,-0.004821,0.010623,0.027318,0.145051
0.080000,-0.031779,0.047323,9.859176,-0.020822,0.051158,0.056488,0.016655,0.006695,0.095774
0.120000,0.020144,-0.008422,9.847420,0.016407,-0.006180,0.028840,0.016441,0.053266,0.118529
0.160000,0.002527,-0.012975,9.860786,0.001081,-0.021793,0.055175,0.026004,0.081213,0.142030
0.200000,-0.003482,0.010430,9.869753,-0.004911,-0.007634,0.053434,0.035876,0.054237,0.094031
0.240000,-0.008017,0.014851,9.868872,-0.018170,0.004582,0.062506,0.017728,0.020634,0.141901
0.280000,0.040974,0.023349,9.883315,0.039912,0.023254,0.064147,0.049512,0.039268,0.106548
0.320000,0.026199,0.007152,9.858407,0.023068,0.016144,0.042183,0.064462,0.073143,0.128135
0.360000,0.001669,-0.010290,9.893396,-0.011927,-0.016966,0.091506,0.060788,0.024050,0.107946
0.400000,-0.025912,0.047620,9.899950,-0.028579,0.030965,0.104255,0.051329,0.048060,0.119702
0.440000,-0.036730,0.028716,9.883165,-0.041673,0.018681,0.058831,0.067379,0.043330,0.140751
0.480000,0.019709,-0.011668,9.879564,0.033887,-0.013745,0.081765,0.061992,0.092965,0.104011
0.520000,0.065072,-0.011682,9.843070,0.027880,-0.006792,0.025558,0.072157,0.149564,0.124068
0.560000,0.014856,0.013904,9.819643,0.030765,0.010452,0.009176,0.055924,0.069236,0.107163
0.600000,-0.004614,0.032904,9.825426,0.000779,0.021358,0.022372,0.112298,0.126203,0.083320
0.640000,0.017157,-0.042023,9.823357,0.022853,-0.044347,0.006915,0.128289,0.096493,0.093340
0.680000,0.048114,-0.006403,9.805811,0.027034,-0.005368,-0.024707,0.080240,0.082136,0.089147
0.720000,-0.007993,-0.015362,9.804835,-0.001987,-0.008489,-0.014547,0.114631,0.158563,0.061981
0.760000,-0.006593,0.003550,9.729432,-0.011012,-0.022344,-0.082508,0.132496,0.177583,0.096161
0.800000,-0.034086,-0.031490,9.781755,-0.028458,-0.022581,-0.052567,0.088451,0.137882,0.096764
0.840000,-0.005915,0.008531,9.789157,0.004486,0.018365,0.004271,0.068528,0.140608,0.096343
0.880000,0.011345,0.007536,9.847000,0.005642,0.005895,0.053684,0.145947,0.137142,0.105054
0.920000,-0.027841,0.044054,9.945035,-0.020651,0.046073,0.142002,0.119134,0.136145,0.091777
0.960000,-0.017669,-0.009358,10.116094,-0.019745,-0.019591,0.284804,0.112489,0.153014,0.056762
1.000000,-0.013527,0.010266,10.233018,-0.019794,-0.000305,0.408875,0.127167,0.166667,0.057032
1.040000,0.022954,-0.006169,10.309817,0.003887,0.005974,0.525561,0.121979,0.197403,0.077522
1.080000,-0.064007,0.015360,10.473056,-0.051386,0.022916,0.669601,0.191483,0.149839,0.064354
1.120000,-0.046827,0.028272,10.498293,-0.045299,0.037027,0.708151,0.124401,0.174448,0.051925
1.160000,-0.045987,0.016008,10.444739,-0.044873,0.008163,0.635346,0.144067,0.178913,0.030426
1.200000,-0.020844,-0.014384,10.283980,-0.020853,-0.018667,0.460453,0.165651,0.218320,0.032869
1.240000,0.017724,-0.009879,10.125246,-0.007964,-0.006164,0.300611,0.167616,0.266263,0.050632
1.280000,-0.042268,0.020164,9.996595,-0.040535,0.018000,0.182574,0.165622,0.248404,-0.004611
1.320000,-0.013514,0.033864,9.916388,0.011692,0.045127,0.112763,0.136794,0.259863,-0.017018
1.360000,0.027053,-0.024223,9.839579,0.029037,-0.016797,0.031010,0.143638,0.282971,0.038976
1.400000,0.005810,-0.021027,9.877392,0.006994,-0.008027,0.057143,0.104328,0.314784,0.009726
1.440000,0.027075,0.042903,9.918270,0.029486,0.041449,0.073060,0.147229,0.368740,0.025022
1.480000,-0.023408,-0.007781,9.864428,-0.016222,-0.009198,0.072204,0.150038,0.293915,0.042414
1.520000,-0.023271,-0.014972,9.902618,-0.010058,-0.005128,0.068785,0.164641,0.380965,-0.014168
1.560000,0.052408,0.054634,9.873096,0.030813,0.050422,0.059435,0.185901,0.333419,-0.032096
1.600000,0.025847,0.025163,9.883727,0.022664,0.014592,0.061423,0.164162,0.455479,-0.009032
1.640000,0.004786,-0.000422,9.870134,0.006708,0.009883,0.057357,0.171054,0.480644,-0.021994
1.680000,0.090868,0.044575,9.918676,0.069592,0.047838,0.087613,0.148757,0.489393,-0.013586
1.720000,0.036957,-0.012357,9.871129,0.045644,-0.017494,0.056184,0.174019,0.473070,-0.007077
1.760000,0.065018,-0.027898,9.938985,0.058994,-0.027834,0.138717,0.147546,0.576279,-0.016035
1.800000,0.014206,0.024818,9.836232,0.026696,0.038538,0.019480,0.168889,0.618560,-0.026339
1.840000,0.093835,-0.007207,9.854040,0.086327,-0.002799,0.027138,0.160687,0.646753,-0.010752
1.880000,0.028378,-0.003109,9.798692,0.039723,0.001630,-0.011311,0.150741,0.666591,-0.023102
1.920000,0.071501,-0.031644,9.750917,0.066797,-0.029940,-0.027972,0.110132,0.691448,-0.044686
1.960000,0.042334,-0.032735,9.821998,0.022802,-0.031456,0.013723,0.160649,0.741792,-0.032829
2.000000,0.036931,-0.036927,9.794383,0.035996,-0.052587,-0.017088,0.143957,0.749334,-0.080850
2.040000,0.016628,-0.034639,9.697729,0.038554,-0.032554,-0.111597,0.147841,0.812661,-0.032986
2.080000,0.066230,-0.041473,9.703499,0.065872,-0.024293,-0.099068,0.137241,0.810041,-0.058054
2.120000,-0.000078,-0.042652,9.751173,-0.004883,-0.043563,-0.078672,0.137660,0.784899,-0.086655
2.160000,0.009310,-0.006449,9.682704,0.000300,-0.023927,-0.091701,0.150721,0.844886,-0.075017
2.200000,0.013210,-0.035969,9.695857,-0.001526,-0.034298,-0.115553,0.111796,0.859875,-0.049869
2.240000,-0.048329,-0.080147,9.764009,-0.063575,-0.075767,-0.047611,0.127000,0.895913,-0.089797
2.280000,-0.095674,-0.053132,9.776356,-0.094364,-0.050081,-0.065067,0.098283,0.881929,-0.069936
2.320000,-0.082793,-0.046929,9.882776,-0.076198,-0.052771,0.072992,0.121368,0.837398,-0.064151
2.360000,-0.048663,-0.019157,10.030309,-0.037478,-0.016063,0.213624,0.110687,0.895206,-0.084686
2.400000,-0.033127,-0.030208,10.192754,-0.027727,-0.015052,0.380879,0.088700,0.823943,-0.105779
2.440000,-0.096144,-0.020358,10.339741,-0.100909,-0.013640,0.528325,0.098689,0.858533,-0.092936
2.480000,-0.126783,0.018845,10.563536,-0.113296,0.019492,0.727091,0.080782,0.877036,-0.122870
2.520000,-0.056355,-0.035257,10.560529,-0.047086,-0.040613,0.767203,0.079790,0.897077,-0.107327
2.560000,-0.093834,-0.002462,10.562110,-0.099457,0.003364,0.762118,0.089499,0.913272,-0.122415
2.600000,-0.098080,0.015070,10.432214,-0.091616,0.018033,0.610902,0.082693,0.907278,-0.103765
2.640000,-0.036213,0.049981,10.345501,-0.039913,0.049532,0.531648,0.033714,0.886111,-0.130604
2.680000,-0.043351,0.060790,10.146478,-0.035208,0.068564,0.340726,0.074216,0.923621,-0.105773
2.720000,-0.029793,0.064114,10.083586,-0.032671,0.065032,0.274645,0.055315,0.940422,-0.086835
2.760000,-0.092495,0.045576,10.018242,-0.084776,0.040903,0.194533,0.047574,0.949267,-0.087455
2.800000,-0.076316,0.078802,9.937800,-0.057297,0.090667,0.120524,0.027705,1.003050,-0.137976
2.840000,0.029556,0.091158,9.903140,0.019997,0.088094,0.103834,0.043648,1.096600,-0.127906
2.880000,0.011920,0.039077,9.887714,0.018879,0.049980,0.074147,0.028333,1.120109,-0.098862
2.920000,0.008476,0.067644,9.854468,0.010962,0.078347,0.045215,0.058438,1.213908,-0.102985
2.960000,0.034232,0.084627,9.894215,0.041143,0.091255,0.077158,-0.007899,1.199359,-0.130331
3.000000,0.101535,0.130207,9.868595,0.096090,0.116553,0.063411,0.001890,1.285552,-0.128528
3.040000,0.126932,0.021421,9.776478,0.123600,0.038572,-0.015397,-0.005420,1.377765,-0.117736
3.080000,0.105666,0.068961,9.835546,0.100245,0.073601,0.015461,0.014406,1.460635,-0.156438
3.120000,0.090008,0.012505,9.846280,0.095503,0.012770,0.028051,0.026701,1.514889,-0.109465
3.160000,0.114352,0.003611,9.861200,0.114849,-0.008060,0.029970,0.007301,1.613133,-0.098318
3.200000,0.164900,-0.004411,9.782566,0.160730,-0.023890,-0.007690,-0.030649,1.686317,-0.127578
3.240000,0.177163,-0.000782,9.719715,0.161711,0.003438,-0.089230,-0.023322,1.701702,-0.147804
3.280000,0.133890,-0.021325,9.718699,0.130824,-0.026718,-0.087845,-0.036878,1.820184,-0.090600
3.320000,0.095887,-0.056632,9.727229,0.105921,-0.055686,-0.076828,-0.016465,1.886763,-0.113707
3.360000,0.138054,-0.054194,9.754843,0.135375,-0.053184,-0.032041,-0.041493,1.918283,-0.102970
3.400000,0.132596,-0.076047,9.697213,0.134246,-0.078780,-0.096792,-0.066587,1.907095,-0.142438
3.440000,0.019333,-0.105868,9.765838,0.039320,-0.090013,-0.048220,-0.032406,1.978775,-0.141046
3.480000,0.030531,-0.111134,9.705710,0.048982,-0.110655,-0.096794,-0.024533,2.019001,-0.104912
3.520000,0.059954,-0.131449,9.740724,0.060619,-0.135957,-0.056880,-0.058990,1.998159,-0.090959
3.560000,0.009193,-0.080388,9.739346,0.009015,-0.071790,-0.092110,-0.058538,2.043831,-0.132233
3.600000,-0.033210,-0.074707,9.789777,-0.030263,-0.079281,-0.055828,-0.096504,2.029730,-0.109647
3.640000,-0.029636,-0.088388,9.747331,-0.038478,-0.071103,-0.061822,-0.112889,1.995531,-0.137146
3.680000,-0.067243,-0.116376,9.840069,-0.057892,-0.117311,0.052602,-0.113897,1.964140,-0.117054
3.720000,-0.131417,-0.097019,9.867361,-0.117555,-0.110440,0.051415,-0.082898,1.931969,-0.105621
3.760000,-0.115000,-0.092405,9.905061,-0.106743,-0.090219,0.126342,-0.093120,1.883671,-0.088000
3.800000,-0.122278,-0.046576,10.056842,-0.116180,-0.036794,0.267094,-0.080854,1.802905,-0.137032
3.840000,-0.150711,-0.059533,10.303509,-0.150129,-0.045282,0.487304,-0.100403,1.771803,-0.065496
3.880000,-0.173516,-0.035022,10.436664,-0.165540,-0.038927,0.647420,-0.081211,1.729815,-0.092156
3.920000,-0.184513,0.013861,10.607981,-0.163096,0.004581,0.802422,-0.087877,1.708568,-0.059556
3.960000,-0.198474,-0.002444,10.597214,-0.172781,-0.001883,0.809468,-0.115958,1.636859,-0.068032
4.000000,-0.120161,-0.001440,10.598296,-0.121393,0.003197,0.787452,-0.133589,1.605797,-0.061391
4.040000,-0.168171,0.040383,10.431434,-0.156881,0.059692,0.604585,-0.155674,1.487765,-0.034337
4.080000,-0.133078,0.062361,10.284348,-0.113025,0.061120,0.483540,-0.092321,1.473668,-0.086561
4.120000,-0.102641,0.081950,10.085020,-0.108890,0.088842,0.275311,-0.143292,1.500982,-0.064292
4.160000,-0.080466,0.028015,9.944484,-0.095918,0.034333,0.146722,-0.157620,1.404843,-0.082781
4.200000,-0.021319,0.104303,9.892434,-0.020375,0.088139,0.093621,-0.128139,1.386904,-0.060875
4.240000,-0.030105,0.096725,9.837099,-0.032789,0.114741,0.039570,-0.163323,1.390287,-0.040200
4.280000,-0.017661,0.062999,9.829668,-0.020430,0.079677,0.007879,-0.133618,1.447141,-0.027738
4.320000,-0.020307,0.080833,9.825663,0.002825,0.078520,0.036865,-0.145326,1.387675,-0.053533
4.360000,0.063939,0.107072,9.803840,0.055053,0.110925,-0.001182,-0.122309,1.433721,-0.065513
4.400000,0.102436,0.113303,9.810548,0.090038,0.118491,-0.005599,-0.126006,1.451572,-0.035414
4.440000,0.139753,0.069348,9.813835,0.121385,0.066621,-0.009812,-0.122403,1.421104,-0.049327
4.480000,0.098112,0.070299,9.725755,0.102488,0.067740,-0.090854,-0.141843,1.500733,-0.039194
4.520000,0.103011,0.041906,9.772729,0.114362,0.051642,-0.036182,-0.164399,1.521933,-0.009510
4.560000,0.146234,-0.005494,9.701185,0.132648,0.000423,-0.100281,-0.168999,1.588629,-0.008503
4.600000,0.143582,0.050605,9.734189,0.138592,0.050110,-0.089691,-0.159668,1.650800,0.003226
4.640000,0.124552,-0.001545,9.662497,0.115806,-0.003216,-0.134494,-0.109722,1.632509,-0.015423
4.680000,0.161624,-0.016818,9.736911,0.168095,-0.021651,-0.060306,-0.154905,1.662966,0.016293
4.720000,0.127198,-0.031498,9.700681,0.124482,-0.025666,-0.129607,-0.146775,1.760251,0.001200
4.760000,0.115479,-0.086556,9.704654,0.126013,-0.090026,-0.110749,-0.119458,1.699270,0.000028
4.800000,0.108726,-0.032467,9.714561,0.108779,-0.041970,-0.101373,-0.144332,1.696219,-0.011476
4.840000,0.087689,-0.049688,9.757496,0.091168,-0.050156,-0.061482,-0.163753,1.769121,-0.026527
4.880000,0.060335,-0.082602,9.758448,0.036899,-0.081573,-0.050130,-0.133295,1.729870,-0.011259
4.920000,0.046983,-0.081572,9.781626,0.041497,-0.079217,-0.006808,-0.155348,1.725904,0.029044
4.960000,0.056252,-0.107720,9.795262,0.077772,-0.101547,-0.018505,-0.139643,1.753450,0.011260
5.000000,0.039664,-0.080778,9.840946,0.039679,-0.071398,0.031219,-0.133596,1.632763,0.001134
5.040000,-0.012316,-0.113214,9.831733,-0.015998,-0.110233,0.034619,-0.151908,1.624879,0.030226
5.080000,-0.052303,-0.079958,9.817183,-0.047563,-0.084466,0.023519,-0.136251,1.553177,0.048722
5.120000,-0.121328,-0.083490,9.885732,-0.110300,-0.074599,0.076430,-0.105710,1.540004,0.055871
5.160000,-0.074686,-0.066631,10.003622,-0.081291,-0.065877,0.213989,-0.147753,1.459555,0.051360
5.200000,-0.091619,-0.028161,10.123793,-0.082006,-0.026247,0.315944,-0.106180,1.381143,0.055005
5.240000,-0.090355,0.032540,10.258687,-0.096109,0.014762,0.452647,-0.141412,1.362394,0.049648
5.280000,-0.109779,-0.021813,10.432345,-0.099320,-0.029041,0.624133,-0.090437,1.275744,0.077192
5.320000,-0.084670,0.006312,10.571809,-0.079331,-0.000754,0.755770,-0.140262,1.174625,0.064973
5.360000,-0.109018,-0.009920,10.650172,-0.118580,-0.019120,0.830843,-0.127506,1.106832,0.070867
5.400000,-0.077660,0.033979,10.604083,-0.082552,0.039436,0.804756,-0.085750,1.073856,0.096920
5.440000,-0.085019,0.026030,10.567991,-0.085333,0.012263,0.744944,-0.080970,0.961401,0.095649
5.480000,-0.095921,0.115525,10.321611,-0.095622,0.113934,0.514902,-0.091567,0.946724,0.079633
5.520000,-0.019996,0.001487,10.198389,-0.020901,0.001934,0.362089,-0.125321,0.916517,0.080175
5.560000,-0.039828,0.091750,9.957976,-0.031913,0.103897,0.156757,-0.097618,0.846426,0.083267
5.600000,-0.072436,0.075493,9.845521,-0.057269,0.079509,0.059691,-0.094665,0.766048,0.052643
5.640000,-0.005617,0.011511,9.912124,-0.011309,0.029170,0.089619,-0.107078,0.745785,0.117961
5.680000,-0.030404,0.113252,9.829107,-0.045705,0.115734,0.012723,-0.071154,0.670429,0.085128
5.720000,-0.008772,0.027427,9.790361,-0.014815,0.033190,-0.037664,-0.095616,0.673332,0.118559
5.760000,0.049324,0.041512,9.768420,0.046782,0.045495,-0.046225,-0.100758,0.635141,0.104780
5.800000,0.020864,0.002546,9.743145,0.032950,0.016406,-0.101955,-0.102108,0.595532,0.134096
5.840000,0.048765,0.046429,9.723839,0.039993,0.039393,-0.083328,-0.030077,0.619652,0.118997
5.880000,0.070039,0.040942,9.705289,0.065225,0.035016,-0.120406,-0.069062,0.540941,0.128620
5.920000,0.068937,0.066599,9.713572,0.061335,0.049701,-0.088546,-0.063078,0.550198,0.100331
5.960000,0.053358,0.098772,9.758298,0.043019,0.082157,-0.059079,-0.068252,0.545151,0.088079
6.000000,0.090691,0.002104,9.757685,0.074831,0.000542,-0.062485,-0.014554,0.552918,0.118171
6.040000,-0.001982,-0.052862,9.800547,0.009165,-0.063097,-0.021941,-0.063724,0.592902,0.078125
6.080000,0.020136,0.017326,9.770147,0.033025,0.014712,-0.051498,-0.054351,0.574649,0.108172
6.120000,0.045635,-0.026115,9.638460,0.044153,-0.021841,-0.122989,-0.030806,0.553704,0.094617
6.160000,0.046674,0.028819,9.832521,0.055899,0.031600,0.023551,-0.018862,0.547187,0.102297
6.200000,0.017763,-0.013182,9.756258,0.028720,-0.019571,-0.045116,0.000709,0.539039,0.131499
6.240000,-0.001642,-0.000630,9.805177,-0.013843,-0.041509,0.000845,-0.019988,0.565807,0.130487
6.280000,-0.033991,-0.038952,9.820832,-0.023901,-0.050621,0.015083,0.030409,0.476611,0.116760
6.320000,0.015651,-0.008963,9.859515,0.015762,-0.011427,0.034853,-0.007855,0.529921,0.126319
6.360000,-0.017498,-0.029717,9.856746,-0.001183,-0.034555,0.043707,-0.008661,0.484610,0.108832
6.400000,-0.017794,0.014051,9.860130,-0.018424,0.009302,0.057743,-0.004593,0.494630,0.167715
6.440000,-0.016754,-0.032412,9.817176,-0.028582,-0.031509,0.029200,0.007948,0.477629,0.124544
6.480000,0.008469,0.018576,9.994724,-0.003662,0.011011,0.161728,0.005961,0.464434,0.105877
6.520000,0.031389,-0.057912,9.927397,0.020939,-0.056357,0.127107,0.050209,0.465362,0.134158
6.560000,-0.012837,-0.072465,9.958991,-0.012054,-0.062350,0.150952,0.020977,0.369915,0.140235
6.600000,0.025701,0.009952,10.119543,0.014586,0.005136,0.277460,0.044075,0.406791,0.098544
6.640000,-0.025367,-0.017582,10.102948,-0.029667,-0.023735,0.302249,0.031803,0.356875,0.084070
6.680000,-0.014763,-0.016659,10.312019,-0.010373,-0.015201,0.506154,0.034483,0.323438,0.086267
6.720000,0.015839,-0.027387,10.428753,0.012022,-0.030486,0.615271,0.085589,0.362278,0.095333
6.760000,-0.016438,-0.019468,10.543709,-0.025295,-0.029077,0.757798,0.100898,0.305747,0.105530
6.800000,-0.032888,0.016393,10.576357,-0.019611,0.016911,0.792184,0.099497,0.255104,0.071745
6.840000,-0.038588,-0.001315,10.448700,-0.027983,0.003155,0.645924,0.049846,0.267623,0.093508
6.880000,-0.003170,-0.027771,10.334048,-0.001733,-0.020678,0.530753,0.057650,0.221733,0.095097
6.920000,-0.003814,0.024817,10.255320,0.008404,0.027355,0.443306,0.128763,0.192472,0.102976
6.960000,-0.015137,0.053627,10.015016,-0.002777,0.038278,0.219686,0.088860,0.169903,0.105784
7.000000,-0.018818,0.005069,9.973156,-0.014612,0.007052,0.156646,0.071052,0.175876,0.098499
7.040000,-0.033779,0.038890,9.827353,-0.043699,0.035296,0.049704,0.124636,0.137620,0.123087
7.080000,0.004880,-0.018024,9.763118,-0.004851,-0.014780,-0.045828,0.108618,0.143072,0.105761
7.120000,-0.002845,0.020294,9.741607,-0.006055,0.024396,-0.073796,0.122767,0.149074,0.084819
7.160000,0.008587,0.004619,9.788684,0.006784,0.013412,-0.026242,0.070548,0.118815,0.057343
7.200000,0.026532,-0.010259,9.791815,0.005657,-0.011261,-0.015743,0.112525,0.155980,0.059492
7.240000,0.038187,0.053659,9.714518,0.043581,0.058830,-0.085577,0.141580,0.098676,0.040562
7.280000,-0.009530,0.024909,9.781815,-0.011941,0.012172,-0.025307,0.113155,0.124995,0.068224
7.320000,-0.038938,-0.010714,9.796517,-0.033048,-0.009639,-0.031992,0.153818,0.109619,0.067703
7.360000,-0.034564,0.003936,9.785322,-0.021690,0.004381,-0.015686,0.105733,0.118173,0.074754
7.400000,0.003119,-0.020867,9.789166,-0.008730,-0.019065,-0.035506,0.132555,0.124922,0.057972
7.440000,0.031074,-0.023682,9.783123,0.034126,-0.027393,-0.043936,0.170227,0.027785,0.069351
7.480000,-0.018680,0.004154,9.744301,-0.025628,-0.010756,-0.039660,0.116615,0.075142,0.065329
7.520000,-0.025222,-0.020387,9.776979,-0.022761,-0.009990,-0.031099,0.147141,0.062791,0.018775
7.560000,0.028525,-0.018561,9.876424,0.016058,-0.021339,0.081090,0.155267,0.065724,0.024411
7.600000,0.016236,0.013717,9.826341,0.026208,0.029405,0.038869,0.147016,0.050540,0.029930
7.640000,-0.022923,-0.009272,9.839302,-0.034562,-0.021504,0.017421,0.141578,0.044536,0.011361
7.680000,-0.032029,-0.027085,9.910076,-0.040971,-0.026004,0.092976,0.130209,0.028327,0.015906
7.720000,-0.035117,-0.047488,9.871093,-0.017170,-0.032538,0.057141,0.152587,0.055948,0.022055
7.760000,0.012953,-0.047772,9.851419,0.018121,-0.035014,0.057701,0.147285,0.074529,0.008800
7.800000,0.014726,0.030904,9.955039,0.004518,0.022765,0.141882,0.121056,0.036448,0.006481
7.840000,-0.002113,-0.012974,9.829659,-0.018487,0.003673,0.039316,0.171982,0.038127,-0.017175
7.880000,0.025317,0.017476,9.893650,0.018162,0.014693,0.082491,0.131748,0.026375,0.007007
7.920000,-0.001670,0.018884,9.850951,0.002295,0.023170,0.050875,0.121467,0.016402,0.000749
7.960000,-0.013574,-0.012256,9.862248,-0.003890,-0.010308,0.036486,0.137244,0.032752,-0.027948
