Timestamp,Accel_X,Accel_Y,Accel_Z,UserAccel_X,UserAccel_Y,UserAccel_Z,Gyro_X,Gyro_Y,Gyro_Z
0.000000,0.056949,0.098001,9.795873,0.044759,0.090139,-0.005988,0.003070,0.195551,0.059257
0.040000,0.115422,0.130958,9.804957,0.099550,0.125103,-0.005934,0.171800,0.154412,0.135495
0.080000,0.117293,0.056879,9.824376,0.115564,0.050950,0.011210,0.308743,0.146050,0.221504
0.120000,0.110220,0.006230,9.831578,0.114343,0.014851,0.002936,0.449057,0.089721,0.235433
0.160000,0.110243,-0.003622,9.784250,0.095694,-0.005182,-0.013345,0.455360,-0.027675,0.254360
0.200000,0.095586,-0.074912,9.804094,0.088265,-0.075650,0.003101,0.419576,-0.095828,0.217096
0.240000,-0.016808,-0.052548,9.798269,-0.009624,-0.066090,0.003954,0.241999,-0.184279,0.129053
0.280000,-0.064236,-0.115158,9.812953,-0.057042,-0.110913,0.001817,0.104225,-0.180104,0.011504
0.320000,-0.030588,-0.073439,9.813658,-0.042952,-0.077465,0.000939,-0.134274,-0.196474,-0.130022
0.360000,-0.092660,-0.088831,9.809557,-0.089049,-0.071019,-0.010278,-0.237163,-0.155862,-0.213915
0.400000,-0.124443,-0.051691,9.837600,-0.112291,-0.049001,0.025022,-0.379354,-0.103139,-0.235232
0.440000,-0.116926,-0.028864,9.792972,-0.130521,-0.029878,-0.004334,-0.458980,-0.006107,-0.251856
0.480000,-0.061652,0.023199,9.827980,-0.069202,0.024721,0.015297,-0.461374,0.068074,-0.219648
0.520000,0.013066,0.070734,9.875091,-0.000689,0.067137,0.057589,-0.314617,0.122557,-0.122763
0.560000,0.004258,0.080873,9.897494,-0.002335,0.077516,0.089948,-0.174108,0.189421,-0.032095
0.600000,0.037147,0.103106,9.942086,0.047721,0.114513,0.136749,0.004622,0.216000,0.013825
0.640000,0.087621,0.092377,10.037256,0.087784,0.091604,0.227898,0.183064,0.208601,0.170424
0.680000,0.112548,0.067506,10.183871,0.107201,0.065723,0.381048,0.317350,0.137552,0.197663
0.720000,0.122237,0.027427,10.461045,0.127692,0.025051,0.645205,0.411451,0.074971,0.264560
0.760000,0.068831,-0.029545,10.787147,0.078677,-0.024581,0.977148,0.443667,-0.004343,0.252510
0.800000,0.064924,-0.039835,11.211267,0.067892,-0.048168,1.392762,0.361214,-0.050702,0.210037
0.840000,0.035704,-0.076736,11.644685,0.027712,-0.079582,1.834850,0.275981,-0.154571,0.117594
0.880000,-0.041333,-0.106895,12.080319,-0.045725,-0.110744,2.271991,0.115847,-0.196938,-0.022821
0.920000,-0.072757,-0.096565,12.461835,-0.076265,-0.087529,2.649629,-0.108880,-0.199683,-0.063138
0.960000,-0.120185,-0.080784,12.751331,-0.105817,-0.077820,2.932638,-0.281875,-0.157465,-0.157145
1.000000,-0.148253,-0.056442,12.809488,-0.134308,-0.059303,2.999520,-0.367971,-0.061079,-0.266758
1.040000,-0.172844,-0.019094,12.721219,-0.153098,-0.015674,2.904070,-0.457932,0.016764,-0.273152
1.080000,-0.115029,0.029943,12.448153,-0.119516,0.025968,2.639222,-0.435794,0.041975,-0.224643
1.120000,-0.001764,0.047420,12.130531,-0.019305,0.053125,2.308115,-0.338216,0.115988,-0.134308
1.160000,-0.010724,0.072644,11.670364,-0.010650,0.082925,1.866500,-0.174669,0.172140,-0.045666
1.200000,0.099817,0.076976,11.297204,0.099620,0.096728,1.504204,0.023800,0.172390,0.065842
1.240000,0.053178,0.076101,10.997383,0.067402,0.072788,1.193170,0.190975,0.190031,0.126087
1.280000,0.098393,0.058403,10.881370,0.096844,0.066503,1.083086,0.325991,0.121503,0.175252
1.320000,0.091105,0.045318,10.863611,0.092819,0.040657,1.054000,0.440323,0.057649,0.260439
1.360000,0.106183,-0.026542,11.064230,0.092129,-0.037048,1.234458,0.426633,-0.014601,0.231118
1.400000,0.036747,-0.049333,11.324594,0.039653,-0.043438,1.518736,0.367485,-0.127690,0.176558
1.440000,0.036347,-0.043178,11.681335,0.032675,-0.045476,1.865908,0.290248,-0.141217,0.115562
1.480000,-0.027794,-0.109815,12.104615,-0.022065,-0.104194,2.306378,0.087473,-0.166747,-0.025362
1.520000,-0.038971,-0.109449,12.457487,-0.053126,-0.100641,2.642722,-0.098135,-0.168716,-0.093874
1.560000,-0.087575,-0.091441,12.706630,-0.099149,-0.086008,2.896490,-0.233894,-0.162874,-0.137779
1.600000,-0.125093,-0.075632,12.835680,-0.126572,-0.078543,3.028537,-0.405589,-0.056737,-0.223755
1.640000,-0.126331,0.012071,12.710593,-0.119065,-0.007739,2.883853,-0.430387,-0.022586,-0.272016
1.680000,-0.065536,0.031240,12.519148,-0.071295,0.032640,2.699515,-0.444010,0.062309,-0.203483
1.720000,-0.080166,0.080220,12.120994,-0.083314,0.070877,2.309766,-0.328472,0.134740,-0.141552
1.760000,0.014283,0.066520,11.684212,0.001019,0.072295,1.892734,-0.148257,0.217909,-0.071046
1.800000,0.040476,0.107225,11.283697,0.057111,0.095720,1.484704,-0.026872,0.170150,0.049729
1.840000,0.077553,0.119795,11.025196,0.085712,0.113030,1.219804,0.200831,0.168564,0.147029
1.880000,0.138130,0.048843,10.856352,0.133056,0.064679,1.058113,0.323828,0.149802,0.218095
1.920000,0.136345,0.046156,10.900101,0.125105,0.034799,1.077386,0.426477,0.061479,0.261924
1.960000,0.112704,-0.037113,11.017951,0.106393,-0.037021,1.215437,0.470710,-0.051092,0.191428
2.000000,0.042803,-0.078174,11.265065,0.035937,-0.078291,1.485113,0.382736,-0.054899,0.171741
2.040000,0.032309,-0.070909,11.708502,0.031388,-0.088729,1.928443,0.295219,-0.138356,0.110293
2.080000,0.005478,-0.109580,12.130274,-0.003503,-0.106890,2.317400,0.132357,-0.181127,-0.011145
2.120000,-0.057559,-0.106536,12.473645,-0.072265,-0.102127,2.640457,-0.089276,-0.175501,-0.105290
2.160000,-0.101012,-0.088072,12.736460,-0.109381,-0.083075,2.921966,-0.262979,-0.168722,-0.203557
2.200000,-0.089433,-0.055110,12.817369,-0.093939,-0.048259,3.012665,-0.375253,-0.077478,-0.248656
2.240000,-0.146171,-0.067171,12.737442,-0.132532,-0.076717,2.922469,-0.451448,-0.042072,-0.242074
2.280000,-0.116331,0.057123,12.473436,-0.107861,0.054968,2.654086,-0.409683,0.066447,-0.218076
2.320000,-0.060056,0.040230,12.130408,-0.052279,0.055631,2.300801,-0.337566,0.103394,-0.155385
2.360000,-0.022114,0.093887,11.685923,-0.009408,0.100580,1.874697,-0.141713,0.166548,-0.052370
2.400000,0.056118,0.095255,11.311481,0.061213,0.103054,1.496258,0.018703,0.231947,0.067403
2.440000,0.115801,0.130746,11.019867,0.103806,0.114149,1.205589,0.165302,0.173033,0.103428
2.480000,0.133023,0.041966,10.840948,0.129756,0.049009,1.034592,0.347058,0.112027,0.241596
2.520000,0.109976,0.008985,10.862225,0.116520,0.008310,1.052275,0.445686,0.108071,0.260914
2.560000,0.119955,-0.024757,10.988318,0.112508,-0.012950,1.181411,0.455212,-0.039430,0.228000
2.600000,0.090435,-0.043968,11.289316,0.075493,-0.045455,1.487567,0.410900,-0.112782,0.165803
2.640000,-0.002348,-0.059566,11.725219,0.002310,-0.062099,1.907619,0.280133,-0.150870,0.098442
2.680000,-0.003093,-0.115986,12.135358,-0.023698,-0.113025,2.311033,0.081517,-0.229034,0.004704
2.720000,-0.092962,-0.103258,12.466066,-0.093087,-0.105969,2.653471,-0.120556,-0.203849,-0.119082
2.760000,-0.089407,-0.060611,12.721090,-0.099240,-0.057624,2.924899,-0.270170,-0.154931,-0.183025
2.800000,-0.111704,-0.059768,12.822170,-0.128524,-0.060002,3.009036,-0.352979,-0.072933,-0.239725
2.840000,-0.126474,-0.009453,12.713590,-0.130697,-0.009410,2.904834,-0.472389,-0.025110,-0.250606
2.880000,-0.092702,0.000658,12.510395,-0.095631,0.008781,2.685723,-0.437235,0.049216,-0.257885
2.920000,-0.049446,0.090102,12.123671,-0.053739,0.073057,2.293384,-0.333575,0.161918,-0.138226
2.960000,-0.027303,0.069328,11.685857,-0.027289,0.074676,1.883460,-0.207437,0.190673,-0.076270
3.000000,0.042689,0.113262,11.311962,0.043610,0.117240,1.505680,0.005893,0.223224,0.012739
3.040000,0.061385,0.080276,11.044957,0.071562,0.088965,1.232645,0.135702,0.178040,0.144198
3.080000,0.119306,0.077637,10.844273,0.135966,0.071159,1.059065,0.342883,0.144243,0.236213
3.120000,0.125844,0.037181,10.867144,0.134699,0.037739,1.070321,0.444481,0.075134,0.224314
3.160000,0.108783,-0.030236,11.016344,0.106431,-0.019181,1.201023,0.447199,-0.032069,0.250212
3.200000,0.049843,-0.053804,11.292386,0.056218,-0.046766,1.493683,0.381511,-0.122530,0.167095
3.240000,0.056810,-0.124840,11.705690,0.048366,-0.118223,1.888815,0.257877,-0.187741,0.116928
3.280000,-0.033085,-0.070935,12.108192,-0.042638,-0.077353,2.288851,0.110522,-0.204582,0.002740
3.320000,-0.069467,-0.100239,12.493532,-0.068159,-0.109525,2.692925,-0.126902,-0.237293,-0.123780
3.360000,-0.106874,-0.112088,12.755495,-0.105895,-0.107411,2.912679,-0.276090,-0.169097,-0.201812
3.400000,-0.129420,-0.087317,12.827752,-0.130421,-0.090566,3.025637,-0.395266,-0.107843,-0.222097
3.440000,-0.109000,-0.017674,12.732574,-0.120643,-0.014176,2.920334,-0.397569,-0.017610,-0.232406
3.480000,-0.055018,0.025223,12.462231,-0.048632,0.023424,2.665155,-0.409079,0.049313,-0.240788
3.520000,-0.047981,0.069777,12.103948,-0.053422,0.064511,2.307402,-0.369753,0.131079,-0.189416
3.560000,0.020878,0.097701,11.723916,0.018339,0.096029,1.884898,-0.185189,0.180932,-0.033537
3.600000,0.021957,0.100447,11.308932,0.030271,0.107479,1.487134,0.005085,0.212255,0.056825
3.640000,0.065471,0.095152,11.048916,0.068782,0.092027,1.234116,0.173015,0.157890,0.140492
3.680000,0.069792,0.034881,10.880385,0.085682,0.042007,1.051524,0.322643,0.161062,0.212655
3.720000,0.124667,0.012701,10.870163,0.129890,0.019515,1.051269,0.445624,0.093867,0.260018
3.760000,0.097745,0.018973,10.985676,0.100041,0.011046,1.196630,0.428820,0.004321,0.238682
3.800000,0.075186,-0.040700,11.331140,0.078553,-0.038197,1.523084,0.398845,-0.093177,0.164511
3.840000,0.037242,-0.107882,11.674653,0.032862,-0.090796,1.872716,0.252169,-0.179183,0.110586
3.880000,-0.045027,-0.071130,12.110226,-0.028278,-0.072758,2.303221,0.081424,-0.178899,-0.006946
3.920000,-0.076560,-0.065986,12.463729,-0.070103,-0.068890,2.649968,-0.094471,-0.227199,-0.124233
3.960000,-0.105364,-0.111839,12.713359,-0.099601,-0.105301,2.908975,-0.303580,-0.170711,-0.220016
4.000000,-0.140919,-0.063330,12.805021,-0.132148,-0.063265,2.991768,-0.383996,-0.128878,-0.222245
4.040000,-0.116314,-0.029620,12.710911,-0.109549,-0.029545,2.915083,-0.466700,-0.033741,-0.262173
4.080000,-0.088611,0.043021,12.463567,-0.093108,0.035850,2.645669,-0.450421,0.057130,-0.227774
4.120000,-0.078389,0.045921,12.086113,-0.071049,0.045495,2.288319,-0.328184,0.115806,-0.134302
4.160000,-0.014663,0.090950,11.688847,-0.012692,0.097908,1.876740,-0.208651,0.210167,-0.012877
4.200000,0.067864,0.129247,11.295541,0.057265,0.135569,1.495457,0.025666,0.217142,0.028170
4.240000,0.095883,0.070938,10.999527,0.080571,0.065259,1.201021,0.185955,0.143886,0.125704
4.280000,0.121510,0.046371,10.871298,0.109712,0.055327,1.069042,0.323781,0.127811,0.202428
4.320000,0.125781,0.041002,10.871339,0.109356,0.040071,1.057077,0.463376,0.022129,0.226232
4.360000,0.084779,-0.025243,10.996228,0.085919,-0.029775,1.182952,0.450091,-0.003621,0.275866
4.400000,0.105957,-0.050776,11.322786,0.097836,-0.045575,1.494010,0.384244,-0.089000,0.147748
4.440000,0.008807,-0.093890,11.696962,0.004876,-0.096804,1.899907,0.274070,-0.122749,0.104453
4.480000,0.011907,-0.071472,12.118349,-0.002514,-0.089846,2.312538,0.076478,-0.186025,-0.013801
4.520000,-0.064873,-0.108416,12.514723,-0.069608,-0.103024,2.679651,-0.099570,-0.166570,-0.124495
4.560000,-0.132479,-0.098823,12.686306,-0.120827,-0.089102,2.902570,-0.259445,-0.150916,-0.194562
4.600000,-0.127349,-0.039100,12.805559,-0.118036,-0.042648,3.010037,-0.379447,-0.125376,-0.252579
4.640000,-0.110544,0.024172,12.743196,-0.117121,0.015925,2.908947,-0.451891,-0.037312,-0.248529
4.680000,-0.103076,0.012712,12.484996,-0.083986,0.019723,2.683807,-0.431184,0.057906,-0.216731
4.720000,-0.047793,0.075391,12.121438,-0.042910,0.065313,2.295599,-0.329111,0.153370,-0.147793
4.760000,-0.003586,0.097072,11.686948,0.003963,0.093136,1.885095,-0.172250,0.155833,-0.018661
4.800000,0.038446,0.104634,11.283463,0.031088,0.106183,1.476622,0.021787,0.186468,0.048459
4.840000,0.072466,0.071730,11.006770,0.065116,0.075170,1.205100,0.172128,0.178685,0.146368
4.880000,0.073789,0.106788,10.870345,0.089264,0.108885,1.049871,0.324199,0.168468,0.219632
4.920000,0.134194,0.028668,10.849673,0.127804,0.033582,1.069256,0.396487,0.011790,0.258784
4.960000,0.115583,-0.038271,11.023377,0.117163,-0.034531,1.224457,0.477877,-0.009869,0.260440
5.000000,0.076456,-0.067177,11.326048,0.066472,-0.065798,1.502789,0.390785,-0.067063,0.171964
5.040000,0.020304,-0.101712,11.676959,0.015921,-0.095572,1.863596,0.289395,-0.128089,0.099808
5.080000,0.012535,-0.108037,12.098506,-0.002139,-0.116797,2.314756,0.081872,-0.216465,0.003214
5.120000,-0.070965,-0.087983,12.458563,-0.084407,-0.099600,2.658234,-0.092332,-0.198492,-0.110315
5.160000,-0.146529,-0.103309,12.724770,-0.146632,-0.099325,2.889115,-0.256944,-0.161088,-0.198889
5.200000,-0.114898,-0.037068,12.806906,-0.115530,-0.036940,2.990991,-0.387279,-0.102992,-0.216793
5.240000,-0.119851,0.006575,12.716641,-0.113135,0.007318,2.889480,-0.431023,-0.010937,-0.227936
5.280000,-0.086997,0.026858,12.464936,-0.088500,0.028840,2.641953,-0.402841,0.084539,-0.219059
5.320000,-0.078246,0.047329,12.090729,-0.077441,0.065957,2.292677,-0.348818,0.107315,-0.143471
5.360000,-0.001792,0.109006,11.691132,0.004441,0.091286,1.882864,-0.172673,0.163819,-0.060671
5.400000,0.049101,0.096643,11.327030,0.050294,0.090750,1.502261,0.000468,0.177738,0.060541
5.440000,0.078084,0.119215,11.015289,0.080080,0.117770,1.190688,0.175898,0.176314,0.151881
5.480000,0.104217,0.091729,10.882667,0.111412,0.093709,1.068737,0.352183,0.120056,0.217475
5.520000,0.131072,0.031412,10.893014,0.131943,0.042234,1.094270,0.416930,0.052017,0.252644
5.560000,0.126799,-0.026072,11.023338,0.123428,-0.034746,1.206698,0.452248,-0.014518,0.242758
5.600000,0.098394,-0.036451,11.331949,0.091209,-0.050121,1.504948,0.382822,-0.053716,0.196089
5.640000,0.022887,-0.037811,11.730397,0.041336,-0.043867,1.905275,0.252655,-0.192898,0.088186
5.680000,-0.048913,-0.089509,12.105811,-0.037694,-0.098463,2.297212,0.081039,-0.188212,-0.028079
5.720000,-0.050917,-0.086790,12.461467,-0.055202,-0.093954,2.652335,-0.097933,-0.200876,-0.077623
5.760000,-0.112367,-0.074033,12.741468,-0.113479,-0.073941,2.922343,-0.283132,-0.168506,-0.172919
5.800000,-0.136814,-0.032557,12.849739,-0.119095,-0.028975,3.029477,-0.372929,-0.078596,-0.247249
5.840000,-0.118946,0.016176,12.698482,-0.121276,-0.004579,2.898745,-0.440992,-0.001941,-0.256088
5.880000,-0.083326,0.046296,12.492167,-0.086521,0.041749,2.662932,-0.457833,0.062145,-0.212914
5.920000,-0.065363,0.048691,12.107070,-0.069623,0.059742,2.304171,-0.321601,0.120637,-0.108830
5.960000,-0.023652,0.099760,11.703521,-0.019601,0.099878,1.911582,-0.197514,0.181188,-0.033938
6.000000,0.020802,0.103054,11.310206,0.031301,0.110311,1.509375,0.012500,0.183150,0.059654
6.040000,0.098875,0.127489,11.024081,0.094970,0.120253,1.221476,0.186847,0.176764,0.123466
6.080000,0.147317,0.070042,10.883478,0.138935,0.087097,1.060241,0.325994,0.159448,0.230371
6.120000,0.110652,0.011032,10.854927,0.104328,0.018919,1.047040,0.452373,0.052910,0.223024
6.160000,0.076245,-0.018915,11.026430,0.076518,-0.011163,1.223789,0.448322,-0.018309,0.246757
6.200000,0.084624,-0.071294,11.312791,0.090675,-0.059046,1.496159,0.386748,-0.085746,0.241231
6.240000,0.043650,-0.063134,11.690111,0.038825,-0.077919,1.871963,0.258340,-0.168927,0.129519
6.280000,-0.027775,-0.092842,12.137350,-0.022422,-0.108931,2.326695,0.085971,-0.179473,-0.015471
6.320000,-0.049942,-0.085780,12.465335,-0.063255,-0.083867,2.668927,-0.095043,-0.160371,-0.094021
6.360000,-0.089935,-0.041910,12.745111,-0.102927,-0.052275,2.941044,-0.243891,-0.134701,-0.170289
6.400000,-0.122400,-0.049205,12.811844,-0.117013,-0.048688,3.006210,-0.330687,-0.078900,-0.239077
6.440000,-0.121663,-0.007919,12.736970,-0.126458,0.003060,2.930526,-0.439498,-0.030874,-0.256496
6.480000,-0.102024,0.057804,12.439529,-0.093446,0.048350,2.637765,-0.431914,0.042042,-0.229502
6.520000,-0.069299,0.090159,12.111844,-0.069181,0.076610,2.302976,-0.333395,0.164664,-0.164491
6.560000,-0.008145,0.086310,11.691487,-0.010698,0.083125,1.878887,-0.190818,0.176988,-0.098535
6.600000,0.064514,0.085964,11.355908,0.069249,0.102313,1.521911,0.001515,0.177613,0.041125
6.640000,0.099439,0.099169,11.017713,0.093551,0.105599,1.217448,0.169105,0.218712,0.161250
6.680000,0.130164,0.070031,10.908205,0.129004,0.054299,1.076726,0.365752,0.104053,0.190205
6.720000,0.118767,0.000146,10.852338,0.120178,-0.006480,1.036436,0.420315,0.074107,0.243257
6.760000,0.136243,-0.028720,11.003849,0.130033,-0.024354,1.215667,0.421061,-0.040425,0.242633
6.800000,0.102904,-0.026484,11.304758,0.095545,-0.030677,1.500380,0.358935,-0.150616,0.183207
6.840000,0.032198,-0.096171,11.705454,0.024621,-0.095960,1.889190,0.306539,-0.172984,0.126280
6.880000,-0.024820,-0.098382,12.133320,-0.024307,-0.090225,2.307073,0.130689,-0.193629,-0.004995
6.920000,-0.064274,-0.079210,12.459665,-0.067420,-0.082375,2.647200,-0.083881,-0.168884,-0.083145
6.960000,-0.094828,-0.077021,12.724715,-0.095360,-0.081725,2.912404,-0.274680,-0.186003,-0.188872
7.000000,-0.111961,-0.050152,12.845760,-0.101247,-0.051007,3.028653,-0.396574,-0.118430,-0.229243
7.040000,-0.087582,0.002074,12.744518,-0.090881,-0.007642,2.926613,-0.455218,-0.045985,-0.251695
7.080000,-0.108874,0.041672,12.463799,-0.094812,0.045340,2.649375,-0.417327,0.086457,-0.173775
7.120000,-0.042634,0.058410,12.113504,-0.037052,0.055698,2.295038,-0.342367,0.130069,-0.168843
7.160000,-0.021601,0.091486,11.713631,-0.025125,0.089955,1.893313,-0.186229,0.197436,-0.064174
7.200000,0.029981,0.111265,11.347740,0.033380,0.124031,1.531892,-0.002473,0.184264,0.019003
7.240000,0.082307,0.093624,11.026026,0.081536,0.098804,1.217994,0.186785,0.192636,0.157197
7.280000,0.105140,0.045783,10.851971,0.095057,0.047587,1.049629,0.313999,0.147901,0.225614
7.320000,0.105354,0.014139,10.857010,0.103449,0.005649,1.045009,0.421389,0.076314,0.251316
7.360000,0.120996,-0.016825,11.029836,0.122068,-0.012072,1.224320,0.464285,-0.039805,0.234600
7.400000,0.085347,-0.037563,11.317262,0.087491,-0.047604,1.505635,0.386479,-0.114550,0.205091
7.440000,0.033486,-0.071414,11.726778,0.024964,-0.079131,1.898936,0.264196,-0.158905,0.078674
7.480000,-0.003343,-0.065442,12.120195,-0.016642,-0.073901,2.289312,0.081926,-0.164840,0.059772
7.520000,-0.061289,-0.099199,12.495580,-0.063616,-0.089590,2.682512,-0.085013,-0.183728,-0.094322
7.560000,-0.123723,-0.075303,12.713010,-0.112920,-0.076698,2.903107,-0.244033,-0.168974,-0.175872
7.600000,-0.105324,-0.025279,12.815923,-0.106644,-0.022439,2.997670,-0.381021,-0.094357,-0.255959
7.640000,-0.132099,-0.017132,12.731702,-0.130909,-0.010931,2.925587,-0.437066,-0.038102,-0.267324
7.680000,-0.102849,0.055731,12.487786,-0.085422,0.036180,2.678741,-0.436735,0.080782,-0.223064
7.720000,-0.030515,0.073340,12.105491,-0.032157,0.074907,2.305369,-0.363838,0.105113,-0.157418
7.760000,-0.028031,0.102260,11.693091,-0.031310,0.093208,1.885820,-0.194343,0.209776,-0.061116
7.800000,0.038758,0.082327,11.328572,0.035042,0.084824,1.511185,0.028788,0.240859,0.029808
7.840000,0.088431,0.107022,11.050494,0.090454,0.103854,1.231798,0.170367,0.189846,0.141612
7.880000,0.125231,0.048294,10.856710,0.119263,0.038750,1.048090,0.339345,0.147432,0.192307
7.920000,0.101474,0.014921,10.824731,0.105589,0.015445,1.020104,0.444976,0.058308,0.257697
7.960000,0.109061,0.006775,11.017596,0.110964,0.002970,1.196775,0.449871,-0.033474,0.242557
8.000000,0.059578,-0.034514,11.301629,0.067422,-0.040418,1.489967,0.386008,-0.096954,0.182553
8.040000,0.009452,-0.090450,11.675423,0.017284,-0.094715,1.891639,0.255349,-0.181070,0.093818
8.080000,-0.019175,-0.109440,12.121299,-0.008831,-0.103947,2.292815,0.092505,-0.202294,0.025423
8.120000,-0.087399,-0.086093,12.477826,-0.089983,-0.081170,2.655188,-0.127449,-0.195538,-0.132283
8.160000,-0.077338,-0.113962,12.719018,-0.085617,-0.105096,2.894998,-0.280212,-0.155668,-0.175092
8.200000,-0.123705,-0.051927,12.829751,-0.116763,-0.049958,3.003947,-0.394194,-0.083923,-0.239143
8.240000,-0.080617,-0.020779,12.690180,-0.094482,-0.016588,2.900335,-0.459824,-0.040726,-0.222343
8.280000,-0.083645,0.029527,12.471930,-0.090934,0.027781,2.645420,-0.444154,0.080884,-0.194786
8.320000,-0.060093,0.054811,12.099034,-0.052514,0.059034,2.269811,-0.334369,0.140309,-0.171415
8.360000,0.029628,0.079791,11.710061,0.017876,0.098320,1.890213,-0.142025,0.195679,-0.057541
8.400000,0.034525,0.098689,11.319747,0.031541,0.097773,1.501105,0.001110,0.226416,0.025277
8.440000,0.055318,0.082311,11.022410,0.071822,0.091656,1.210905,0.164747,0.209225,0.130614
8.480000,0.105947,0.073592,10.830762,0.099132,0.081381,1.034905,0.347414,0.155451,0.216168
8.520000,0.108967,0.037853,10.876289,0.112770,0.033890,1.055580,0.430873,0.063809,0.266829
8.560000,0.080080,-0.008412,11.001638,0.091115,0.007540,1.198750,0.409798,0.013916,0.243457
8.600000,0.079914,-0.073512,11.313686,0.079585,-0.071797,1.508433,0.400679,-0.093967,0.199778
8.640000,0.013021,-0.064468,11.712564,0.026758,-0.061195,1.891742,0.256879,-0.122958,0.132427
8.680000,-0.031550,-0.107656,12.093611,-0.036642,-0.119517,2.286196,0.072301,-0.182535,0.024878
8.720000,-0.089242,-0.091101,12.456003,-0.088456,-0.083622,2.648477,-0.107706,-0.185755,-0.107814
8.760000,-0.107764,-0.077341,12.742735,-0.113153,-0.077799,2.928586,-0.286151,-0.151322,-0.212182
8.800000,-0.146158,-0.019852,12.841586,-0.139385,-0.019867,3.032147,-0.398087,-0.087390,-0.256700
8.840000,-0.100536,0.020978,12.699210,-0.109664,0.024222,2.890720,-0.418696,-0.014186,-0.260038
8.880000,-0.074180,0.062105,12.480967,-0.074170,0.061168,2.672383,-0.457356,0.049601,-0.243114
8.920000,-0.063093,0.040439,12.102955,-0.058561,0.043037,2.292176,-0.332467,0.094807,-0.150688
8.960000,0.000686,0.098101,11.712021,0.002451,0.089320,1.887174,-0.151491,0.147014,-0.042097
9.000000,0.064386,0.095621,11.336504,0.064024,0.099300,1.523228,-0.003430,0.183749,0.057346
9.040000,0.079359,0.083948,11.070013,0.073246,0.082390,1.255847,0.162633,0.184750,0.155448
9.080000,0.130775,0.103626,10.888132,0.131474,0.092053,1.066233,0.315571,0.137111,0.202123
9.120000,0.116466,0.008616,10.896115,0.119615,0.010810,1.084584,0.405299,0.033140,0.243389
9.160000,0.100095,-0.006541,11.007444,0.100129,-0.008202,1.189087,0.464499,-0.018841,0.235465
9.200000,0.071488,-0.042707,11.308298,0.068491,-0.047370,1.498440,0.382286,-0.134957,0.219058
9.240000,0.043360,-0.073594,11.710933,0.040822,-0.079503,1.892279,0.256097,-0.157255,0.082000
9.280000,0.013155,-0.104923,12.097654,0.005458,-0.090828,2.290533,0.062823,-0.203303,-0.020376
9.320000,-0.062564,-0.105427,12.473384,-0.050260,-0.100790,2.651817,-0.072104,-0.206278,-0.111957
9.360000,-0.110785,-0.090316,12.725168,-0.103235,-0.087694,2.908762,-0.270901,-0.178365,-0.173158
9.400000,-0.121012,-0.026388,12.835137,-0.120055,-0.039212,3.022507,-0.379990,-0.111935,-0.256729
9.440000,-0.082850,-0.000927,12.717246,-0.091486,-0.014272,2.906723,-0.437453,0.008640,-0.219618
9.480000,-0.099223,0.040672,12.452999,-0.096931,0.035288,2.641247,-0.406921,0.037071,-0.210362
9.520000,-0.064425,0.044260,12.090847,-0.062779,0.074469,2.286476,-0.313669,0.099192,-0.134564
9.560000,0.020478,0.122595,11.688051,0.012194,0.118061,1.871982,-0.160273,0.182731,-0.055178
9.600000,0.066091,0.120727,11.294096,0.047140,0.129886,1.485512,0.009763,0.228938,0.038996
9.640000,0.127241,0.119084,11.016021,0.116628,0.115259,1.220997,0.188014,0.177568,0.130063
9.680000,0.093157,0.065688,10.842052,0.115305,0.068947,1.034850,0.329965,0.125504,0.240685
9.720000,0.099493,0.027999,10.850710,0.116437,0.028345,1.046031,0.440867,0.057009,0.202346
9.760000,0.115735,-0.024889,11.007286,0.110652,-0.018673,1.211684,0.438533,0.001118,0.216512
9.800000,0.118821,-0.063087,11.310491,0.111673,-0.066048,1.502395,0.373142,-0.058182,0.195960
9.840000,0.006497,-0.077910,11.693577,0.030855,-0.081451,1.880281,0.267708,-0.178120,0.114517
9.880000,-0.045215,-0.128311,12.096049,-0.035949,-0.132546,2.288757,0.106950,-0.215512,0.009460
9.920000,-0.069033,-0.106090,12.442667,-0.074806,-0.109515,2.641267,-0.072100,-0.192116,-0.116898
9.960000,-0.094907,-0.080907,12.756088,-0.105950,-0.076252,2.938915,-0.261316,-0.138370,-0.193183
10.000000,-0.136908,-0.041593,12.809978,-0.132525,-0.054346,2.995598,-0.363624,-0.105922,-0.247559
10.040000,-0.125846,-0.048936,12.759660,-0.127816,-0.046586,2.925032,-0.448523,-0.043209,-0.264774
10.080000,-0.120819,0.044670,12.451572,-0.116324,0.029984,2.631181,-0.435438,0.053255,-0.199839
10.120000,-0.073788,0.066049,12.091125,-0.073708,0.058344,2.287499,-0.371864,0.143718,-0.100976
10.160000,-0.003892,0.099506,11.707900,-0.008292,0.096543,1.896683,-0.197216,0.203189,-0.056157
10.200000,0.013710,0.096978,11.296704,0.022681,0.098323,1.487036,0.014759,0.166019,0.068344
10.240000,0.048557,0.105922,11.032727,0.050424,0.109394,1.239262,0.201503,0.168938,0.190707
10.280000,0.102826,0.056021,10.864443,0.100156,0.049009,1.058903,0.341782,0.117623,0.217232
10.320000,0.080658,0.038888,10.867676,0.088402,0.040539,1.077036,0.464103,0.056517,0.245279
10.360000,0.106996,-0.033684,11.019480,0.107258,-0.023805,1.210789,0.472709,-0.027459,0.224628
10.400000,0.069215,-0.056925,11.301923,0.060293,-0.054182,1.490879,0.384766,-0.084456,0.199836
10.440000,0.049774,-0.080279,11.713717,0.034963,-0.092076,1.913707,0.251235,-0.197690,0.156183
10.480000,-0.007212,-0.098439,12.085857,-0.011017,-0.102948,2.276894,0.051276,-0.208919,0.023453
10.520000,-0.079775,-0.114787,12.478718,-0.077162,-0.106897,2.672143,-0.075372,-0.190525,-0.093398
10.560000,-0.102636,-0.091960,12.747856,-0.098051,-0.090927,2.924393,-0.309463,-0.146304,-0.182202
10.600000,-0.144570,-0.053266,12.834160,-0.130877,-0.071319,3.013483,-0.366117,-0.050160,-0.230436
10.640000,-0.120847,-0.015865,12.733943,-0.123429,-0.011192,2.915888,-0.419041,0.007079,-0.220961
10.680000,-0.093628,0.011448,12.486680,-0.109891,0.015063,2.662065,-0.406209,0.046300,-0.227014
10.720000,-0.036114,0.085594,12.085682,-0.040515,0.076295,2.297061,-0.319203,0.116568,-0.171448
10.760000,-0.007686,0.101490,11.686957,-0.017402,0.098725,1.871659,-0.194722,0.183792,-0.047083
10.800000,0.040786,0.133652,11.307435,0.042710,0.118221,1.505939,-0.030492,0.222625,0.073159
10.840000,0.108378,0.098954,11.025238,0.106871,0.106057,1.210336,0.210360,0.174045,0.145314
10.880000,0.112930,0.060397,10.847267,0.117582,0.072997,1.036342,0.337349,0.114813,0.202897
10.920000,0.134004,0.059947,10.843217,0.109755,0.067006,1.053049,0.427264,0.057327,0.241704
10.960000,0.108023,0.004664,11.042013,0.112242,-0.006004,1.219301,0.458567,-0.018033,0.240716
11.000000,0.050935,-0.060048,11.320597,0.037418,-0.047055,1.507532,0.398842,-0.075063,0.177360
11.040000,0.024560,-0.086197,11.720825,0.030154,-0.091582,1.911117,0.258822,-0.149485,0.132888
11.080000,-0.013426,-0.084461,12.091637,-0.007633,-0.097050,2.290282,0.097019,-0.191775,0.020241
11.120000,-0.115382,-0.056984,12.446421,-0.098257,-0.075905,2.647229,-0.104081,-0.174137,-0.086705
11.160000,-0.105243,-0.070096,12.694076,-0.097832,-0.071227,2.899662,-0.279660,-0.121866,-0.182790
11.200000,-0.120472,-0.055485,12.806961,-0.119789,-0.044303,2.994846,-0.401422,-0.112337,-0.224530
11.240000,-0.104598,-0.033728,12.734598,-0.111248,-0.033851,2.919941,-0.430719,-0.030687,-0.283368
11.280000,-0.067827,-0.014828,12.449464,-0.076104,-0.018297,2.659569,-0.405058,0.032238,-0.202931
11.320000,-0.051857,0.035402,12.120280,-0.039295,0.047169,2.285092,-0.336489,0.120967,-0.181286
11.360000,-0.009606,0.076373,11.677005,-0.017066,0.083849,1.890005,-0.207316,0.183941,-0.043694
11.400000,0.047382,0.139711,11.287645,0.050949,0.137394,1.480603,0.008980,0.184068,0.052549
11.440000,0.074953,0.120729,11.059472,0.074398,0.111771,1.238183,0.183332,0.171800,0.154445
11.480000,0.102312,0.055434,10.848931,0.102695,0.046303,1.048575,0.338030,0.131745,0.225456
11.520000,0.116655,0.018576,10.879905,0.115730,0.022817,1.071051,0.496154,0.027987,0.236569
11.560000,0.109616,-0.015754,11.021105,0.108241,-0.013735,1.217376,0.478394,-0.019839,0.239099
11.600000,0.069854,-0.037877,11.299618,0.094669,-0.038077,1.490459,0.387991,-0.126773,0.158120
11.640000,0.042200,-0.070763,11.718366,0.030966,-0.064749,1.893589,0.274468,-0.134291,0.110865
11.680000,-0.023284,-0.113890,12.088605,-0.018206,-0.115893,2.295126,0.105755,-0.191584,0.023388
11.720000,-0.085971,-0.091685,12.452023,-0.073237,-0.087963,2.639159,-0.088560,-0.198204,-0.103858
11.760000,-0.085634,-0.057560,12.695408,-0.092172,-0.065970,2.897452,-0.225789,-0.149984,-0.206985
11.800000,-0.140392,-0.041003,12.794886,-0.138527,-0.048720,3.004887,-0.356443,-0.065025,-0.278066
11.840000,-0.135935,-0.006690,12.727990,-0.122773,-0.010294,2.919518,-0.449549,-0.017606,-0.230940
11.880000,-0.060206,0.031893,12.447470,-0.055832,0.021589,2.655307,-0.426422,0.083877,-0.219845
11.920000,-0.063345,0.075930,12.100907,-0.063348,0.065147,2.285482,-0.339784,0.122964,-0.154844
11.960000,-0.002517,0.081280,11.721555,-0.008538,0.082512,1.911996,-0.190996,0.171323,-0.030918
12.000000,0.042222,0.112067,11.333892,0.043669,0.102671,1.510675,-0.006943,0.204196,0.048414
12.040000,0.098886,0.100632,11.037227,0.111252,0.097222,1.219839,0.202550,0.176126,0.165085
12.080000,0.136175,0.085109,10.859204,0.125136,0.097953,1.054920,0.310813,0.140646,0.215856
12.120000,0.119584,0.045107,10.860830,0.132157,0.044056,1.063750,0.455014,0.060275,0.239209
12.160000,0.098262,-0.005380,11.056845,0.110554,0.003227,1.231740,0.440685,-0.021047,0.269447
12.200000,0.060369,-0.068901,11.313528,0.048605,-0.056060,1.499216,0.380954,-0.132042,0.205783
12.240000,0.031122,-0.031862,11.698767,0.013202,-0.033366,1.881327,0.271104,-0.148110,0.127049
12.280000,-0.004352,-0.086554,12.117564,-0.016526,-0.083478,2.303318,0.080004,-0.223655,0.009777
12.320000,-0.082082,-0.112514,12.485425,-0.079635,-0.103182,2.669382,-0.109152,-0.179998,-0.155221
12.360000,-0.089445,-0.089774,12.704367,-0.095036,-0.085472,2.890636,-0.284694,-0.173050,-0.195537
12.400000,-0.128695,-0.046476,12.813055,-0.128199,-0.047454,2.996862,-0.401695,-0.098336,-0.219281
12.440000,-0.110982,-0.022378,12.745037,-0.121871,-0.013531,2.917012,-0.454267,-0.027115,-0.226649
12.480000,-0.067274,0.061081,12.475648,-0.090317,0.059891,2.685197,-0.480912,0.051021,-0.207398
12.520000,-0.029212,0.084390,12.111263,-0.020707,0.070890,2.306451,-0.351344,0.123061,-0.132901
12.560000,0.002587,0.134834,11.733371,0.007093,0.130577,1.913258,-0.162971,0.173904,-0.039920
12.600000,0.034012,0.089449,11.267466,0.028544,0.092647,1.474173,-0.016424,0.205806,0.039880
12.640000,0.081556,0.086108,10.992697,0.079134,0.094731,1.192726,0.182290,0.180134,0.168843
12.680000,0.103779,0.072362,10.855811,0.111057,0.080158,1.041971,0.329015,0.149761,0.247590
12.720000,0.119939,0.028559,10.883802,0.124869,0.013134,1.057899,0.401654,0.101767,0.244146
12.760000,0.104827,-0.037680,11.051662,0.101757,-0.033418,1.236948,0.413073,-0.044620,0.244720
12.800000,0.059094,-0.053669,11.316390,0.056676,-0.054642,1.500925,0.413620,-0.120391,0.192832
12.840000,0.010795,-0.076109,11.692660,0.019930,-0.073306,1.876484,0.271637,-0.137383,0.116321
12.880000,-0.016263,-0.062674,12.085958,-0.024419,-0.061743,2.278944,0.052747,-0.196057,0.021565
12.920000,-0.080829,-0.088918,12.485673,-0.069858,-0.082866,2.681552,-0.103338,-0.209131,-0.112472
12.960000,-0.096442,-0.090100,12.741719,-0.090804,-0.076975,2.945400,-0.231166,-0.146878,-0.202170
13.000000,-0.131783,-0.060869,12.792283,-0.129879,-0.060129,2.996641,-0.407039,-0.124611,-0.226614
13.040000,-0.126855,-0.037705,12.710625,-0.126050,-0.035970,2.903272,-0.437521,-0.002799,-0.238458
13.080000,-0.155832,0.055589,12.477436,-0.142108,0.052175,2.665469,-0.435316,0.062541,-0.201032
13.120000,-0.046368,0.074483,12.131989,-0.038894,0.074128,2.312077,-0.320258,0.152167,-0.146231
13.160000,0.000357,0.083617,11.718900,-0.000414,0.087924,1.892738,-0.169091,0.191970,-0.069535
13.200000,0.050683,0.077332,11.311308,0.044965,0.078424,1.497658,-0.004982,0.203807,0.077484
13.240000,0.095972,0.111027,11.006992,0.102652,0.109563,1.212438,0.187341,0.171393,0.134099
13.280000,0.081664,0.076697,10.850888,0.087794,0.074896,1.032374,0.301151,0.157330,0.265505
13.320000,0.127436,0.000427,10.837768,0.111262,0.008930,1.067635,0.465951,0.035367,0.251693
13.360000,0.095803,-0.017262,11.020891,0.112565,-0.014228,1.224524,0.459397,-0.017797,0.229293
13.400000,0.089122,-0.059697,11.300807,0.098495,-0.061663,1.488350,0.394217,-0.075077,0.166488
13.440000,0.036929,-0.072512,11.707633,0.031255,-0.082725,1.885403,0.272847,-0.144159,0.116521
13.480000,-0.033495,-0.119228,12.074713,-0.023643,-0.116267,2.279806,0.102875,-0.208323,0.013726
13.520000,-0.065163,-0.106014,12.482649,-0.068443,-0.116552,2.665572,-0.095476,-0.166065,-0.098325
13.560000,-0.116224,-0.076347,12.715138,-0.116350,-0.075116,2.893506,-0.236157,-0.156714,-0.203660
13.600000,-0.104044,-0.022979,12.805038,-0.108665,-0.029365,3.002065,-0.411838,-0.058926,-0.243573
13.640000,-0.081187,-0.009600,12.755487,-0.090214,-0.004599,2.936880,-0.426388,0.024395,-0.269429
13.680000,-0.088865,0.057599,12.509914,-0.084190,0.063010,2.692300,-0.422357,0.077422,-0.243479
13.720000,-0.034808,0.057708,12.084493,-0.039970,0.055016,2.281279,-0.352409,0.163981,-0.132099
13.760000,0.006657,0.076294,11.706677,0.007867,0.079240,1.899052,-0.198734,0.165813,-0.036000
13.800000,0.069594,0.087329,11.314669,0.062729,0.103354,1.495980,-0.008894,0.222558,0.042611
13.840000,0.093221,0.096213,11.031460,0.096166,0.087480,1.221132,0.174602,0.179116,0.102798
13.880000,0.128205,0.041528,10.891977,0.123004,0.047295,1.065671,0.294973,0.139086,0.178150
13.920000,0.126937,0.011804,10.877246,0.125384,0.008952,1.059636,0.462169,0.060094,0.292375
13.960000,0.113250,-0.011682,11.022523,0.116836,-0.011600,1.200223,0.459531,-0.036084,0.249412
14.000000,0.093153,-0.037414,11.305713,0.078263,-0.044508,1.505150,0.428233,-0.073927,0.200526
14.040000,0.040693,-0.062635,11.692594,0.041118,-0.077526,1.881423,0.262093,-0.185444,0.107928
14.080000,-0.029432,-0.102518,12.063044,-0.021762,-0.103330,2.265858,0.099126,-0.189824,-0.018974
14.120000,-0.053520,-0.098989,12.463217,-0.057757,-0.109020,2.654747,-0.092728,-0.187716,-0.121180
14.160000,-0.109797,-0.091991,12.707952,-0.110135,-0.094895,2.912884,-0.286376,-0.194480,-0.165319
14.200000,-0.133877,-0.047717,12.812024,-0.134247,-0.040623,3.005191,-0.393082,-0.115559,-0.236110
14.240000,-0.110224,-0.009609,12.733537,-0.112334,-0.005913,2.917265,-0.462699,-0.003220,-0.255446
14.280000,-0.111920,0.030888,12.487464,-0.107217,0.029678,2.679418,-0.428155,0.097973,-0.225322
14.320000,-0.060611,0.064557,12.068056,-0.056847,0.079893,2.286228,-0.319821,0.142626,-0.135594
14.360000,-0.012096,0.083136,11.709555,0.000958,0.088015,1.884722,-0.200905,0.202831,-0.065575
14.400000,0.050084,0.089563,11.259167,0.057218,0.085557,1.476933,0.019607,0.203851,0.041221
14.440000,0.074815,0.090629,11.023392,0.067090,0.093177,1.214555,0.196972,0.188118,0.155138
14.480000,0.094973,0.069001,10.865401,0.096761,0.062842,1.058298,0.320262,0.118246,0.222609
14.520000,0.121003,0.027624,10.879370,0.119080,0.014740,1.071249,0.431566,0.045270,0.228359
14.560000,0.089729,-0.010658,11.006610,0.088311,-0.012001,1.202117,0.445632,-0.019303,0.259484
14.600000,0.057744,-0.056803,11.341310,0.055978,-0.047437,1.515343,0.403031,-0.119002,0.208107
14.640000,0.023361,-0.072101,11.713355,0.026973,-0.074841,1.912547,0.276809,-0.141024,0.112297
14.680000,-0.013513,-0.081692,12.096339,-0.007094,-0.079749,2.292246,0.088758,-0.186787,0.000506
14.720000,-0.066712,-0.081641,12.467798,-0.073503,-0.086810,2.667010,-0.099022,-0.217627,-0.087124
14.760000,-0.100699,-0.083977,12.736566,-0.103392,-0.074383,2.917770,-0.240758,-0.197474,-0.218876
14.800000,-0.118937,-0.083587,12.798725,-0.127495,-0.074918,2.998000,-0.375875,-0.081721,-0.235543
14.840000,-0.133953,0.019815,12.731815,-0.122716,0.013409,2.912516,-0.444740,-0.039550,-0.251623
14.880000,-0.085859,0.053253,12.454681,-0.097586,0.062633,2.647253,-0.408786,0.031396,-0.254220
14.920000,-0.059238,0.057794,12.137568,-0.063555,0.065054,2.310960,-0.352595,0.102072,-0.184326
14.960000,-0.009115,0.083965,11.712079,-0.003149,0.080371,1.894483,-0.171574,0.182506,-0.047527
15.000000,0.029734,0.120878,11.328736,0.034906,0.122924,1.531325,-0.010504,0.216228,0.055318
15.040000,0.092977,0.104875,11.027028,0.090411,0.105793,1.212285,0.191578,0.184239,0.138435
15.080000,0.125987,0.056649,10.842143,0.122375,0.049648,1.044730,0.364160,0.137276,0.227316
15.120000,0.130783,0.035616,10.806717,0.139575,0.036555,1.019957,0.442029,0.059212,0.221573
15.160000,0.087059,-0.028974,11.024911,0.087639,-0.032942,1.208261,0.459905,-0.014661,0.206980
15.200000,0.055660,-0.046956,11.347376,0.050317,-0.047720,1.536081,0.394976,-0.136951,0.194373
15.240000,0.007695,-0.089352,11.708331,0.017420,-0.082491,1.898599,0.286905,-0.175085,0.102669
15.280000,-0.023842,-0.072999,12.126535,-0.035662,-0.079860,2.294270,0.109292,-0.176220,-0.026687
15.320000,-0.080485,-0.090528,12.454004,-0.087918,-0.086455,2.653671,-0.092484,-0.194437,-0.083856
15.360000,-0.101348,-0.096894,12.742779,-0.095934,-0.101429,2.921570,-0.258990,-0.161949,-0.194256
15.400000,-0.151039,-0.057453,12.805351,-0.150884,-0.058177,2.999125,-0.381580,-0.110792,-0.223742
15.440000,-0.153350,-0.032740,12.749368,-0.151594,-0.028206,2.923425,-0.469575,-0.015653,-0.253111
15.480000,-0.074218,0.036727,12.454523,-0.076229,0.032186,2.645561,-0.392630,0.027157,-0.222343
15.520000,-0.043614,0.059708,12.068408,-0.055874,0.059072,2.259647,-0.336847,0.149251,-0.170879
15.560000,-0.009881,0.110649,11.608768,-0.002341,0.111526,1.788702,-0.152155,0.194483,-0.037020
15.600000,0.048757,0.121593,11.145444,0.054224,0.114801,1.361039,-0.045740,0.224090,0.060232
15.640000,0.093530,0.080961,10.784221,0.099928,0.079696,0.981356,0.179413,0.214252,0.136705
15.680000,0.111946,0.095376,10.495746,0.101616,0.094434,0.675785,0.346741,0.155039,0.260636
15.720000,0.126990,0.018012,10.217601,0.118710,0.017840,0.398717,0.414147,0.055120,0.271168
15.760000,0.072734,-0.000499,10.030364,0.072704,0.004616,0.235606,0.441839,-0.034264,0.228673
15.800000,0.068442,-0.067231,9.966724,0.059539,-0.059044,0.142731,0.349927,-0.095411,0.203740
15.840000,0.041327,-0.088104,9.877605,0.027596,-0.083567,0.077925,0.275832,-0.133657,0.083025
15.880000,0.005026,-0.129115,9.848966,-0.007443,-0.123187,0.043656,0.100038,-0.195086,-0.019097
15.920000,-0.054688,-0.075737,9.830896,-0.057221,-0.090408,0.017325,-0.070057,-0.182913,-0.098388
15.960000,-0.072160,-0.094729,9.814354,-0.077873,-0.090139,0.007559,-0.277109,-0.157827,-0.171526
