Timestamp,Accel_X,Accel_Y,Accel_Z,UserAccel_X,UserAccel_Y,UserAccel_Z,Gyro_X,Gyro_Y,Gyro_Z
0.000000,0.006927,0.025090,9.838017,0.020115,0.010019,0.025311,0.012098,-0.045475,0.099152
0.040000,0.057252,-0.025161,9.817134,0.042844,-0.014700,0.006077,0.028570,-0.011265,0.116391
0.080000,0.056382,-0.001436,9.846772,0.056445,-0.011395,0.055887,0.006933,-0.073041,0.107145
0.120000,-0.026345,0.043171,9.878807,-0.025466,0.034761,0.068318,-0.035801,-0.029997,0.103694
0.160000,0.015353,0.020424,9.829938,0.017027,0.023436,0.023916,0.018763,-0.079017,0.133459
0.200000,-0.011326,0.060121,9.900984,-0.011159,0.055576,0.072624,0.006900,-0.064731,0.140154
0.240000,0.018563,-0.071561,9.826531,0.034156,-0.064546,0.027158,0.064309,-0.093375,0.115373
0.280000,0.018036,-0.005017,9.904361,0.013970,0.012242,0.087176,0.034037,-0.056763,0.115212
0.320000,-0.000588,-0.049904,9.880598,-0.002630,-0.061282,0.092655,0.064012,-0.106907,0.099111
0.360000,-0.021326,-0.010207,9.882108,-0.017653,-0.003375,0.070908,0.082061,-0.071832,0.091042
0.400000,-0.001781,0.009263,9.837287,-0.003838,-0.008744,0.021923,0.043458,-0.059155,0.126442
0.440000,-0.013382,-0.023915,9.835606,-0.011331,-0.032745,0.019494,0.065401,-0.075497,0.083160
0.480000,0.004104,-0.028604,9.937778,0.004845,-0.020158,0.129560,0.070052,-0.074170,0.094051
0.520000,0.010007,-0.007616,9.894909,0.005831,-0.013502,0.058932,0.118657,-0.085316,0.091109
0.560000,-0.011522,0.009210,9.821906,-0.009263,0.003931,0.017315,0.105000,-0.098235,0.110152
0.600000,-0.020090,-0.019385,9.856074,-0.012317,-0.036611,0.038848,0.063412,-0.102468,0.095092
0.640000,0.025977,-0.032153,9.843520,0.018388,-0.027263,0.038243,0.077366,-0.097998,0.084859
0.680000,0.008116,0.001089,9.812423,0.018867,0.003412,0.014992,0.085041,-0.136952,0.120494
0.720000,-0.010046,0.012149,9.751536,-0.020562,0.007816,-0.040650,0.082662,-0.123670,0.122821
0.760000,-0.006859,0.055394,9.742369,-0.003422,0.055212,-0.053915,0.097009,-0.066851,0.094772
0.800000,-0.016899,-0.020358,9.799494,-0.025657,-0.006455,-0.019571,0.097004,-0.109392,0.086478
0.840000,0.073408,0.015510,9.798170,0.059030,0.005362,-0.031736,0.112423,-0.094053,0.070028
0.880000,-0.032448,0.000425,9.879798,-0.031854,-0.015557,0.060779,0.113307,-0.120620,0.076090
0.920000,0.004566,0.027524,9.925258,-0.004155,0.025991,0.120284,0.142415,-0.151489,0.048600
0.960000,0.004904,-0.043869,10.078563,-0.001399,-0.031143,0.277987,0.107643,-0.145246,0.088597
1.000000,-0.029167,-0.009022,10.263702,-0.030995,-0.007891,0.451238,0.092837,-0.186189,0.062203
1.040000,-0.031375,-0.007069,10.332129,-0.037402,0.002024,0.537749,0.119496,-0.114039,0.046995
1.080000,-0.026813,0.007650,10.504993,-0.024014,0.010241,0.681736,0.120029,-0.132764,0.049929
1.120000,-0.022875,0.025838,10.539062,-0.039294,0.023983,0.723520,0.164481,-0.184018,0.066408
1.160000,-0.012176,0.004808,10.382645,-0.013019,-0.001752,0.587161,0.154428,-0.153392,0.042791
1.200000,-0.045686,0.042582,10.292174,-0.038383,0.028530,0.459803,0.165763,-0.166677,0.027736
1.240000,-0.016520,-0.019974,10.157601,-0.012180,-0.026245,0.365694,0.161119,-0.194508,-0.002812
1.280000,-0.056547,0.007661,10.065243,-0.065423,0.018241,0.254467,0.104256,-0.199467,0.032847
1.320000,-0.040411,-0.025806,9.845932,-0.031207,-0.032624,0.023426,0.128256,-0.214232,0.037293
1.360000,0.000890,0.008361,9.944899,-0.018030,0.011218,0.123884,0.116707,-0.238266,0.015301
1.400000,0.034721,0.079514,9.803837,0.021665,0.081243,0.003212,0.179160,-0.265839,0.004515
1.440000,-0.057090,0.026538,9.873546,-0.044778,0.026679,0.069730,0.165519,-0.291550,-0.006856
1.480000,0.039774,0.010072,9.829232,0.032041,0.008722,0.033568,0.157348,-0.334229,0.003358
1.520000,0.019041,0.043495,9.875549,0.028719,0.033369,0.062267,0.138432,-0.325838,-0.016192
1.560000,-0.035027,0.023294,9.905564,-0.026691,0.018326,0.083262,0.140875,-0.329463,-0.021119
1.600000,0.032386,-0.022350,9.875890,0.037075,-0.010494,0.094531,0.132734,-0.439137,-0.013085
1.640000,-0.001636,-0.046307,9.935231,0.005787,-0.031286,0.116893,0.162638,-0.443777,0.029377
1.680000,0.055500,0.017323,9.828711,0.048246,0.010821,0.026090,0.151180,-0.495446,0.033624
1.720000,0.056474,0.007105,9.899504,0.053938,0.001718,0.090899,0.162209,-0.500354,0.005715
1.760000,0.065495,0.007532,9.829407,0.061268,-0.005080,0.035379,0.155695,-0.538517,-0.009683
1.800000,0.029296,0.015421,9.822474,0.029266,0.016405,0.021756,0.162588,-0.580431,-0.066020
1.840000,0.056104,0.026471,9.904900,0.061382,0.023671,0.065015,0.154929,-0.632243,0.021609
1.880000,0.076913,0.005531,9.828188,0.082120,0.000757,0.023263,0.164928,-0.661469,-0.028675
1.920000,0.045095,-0.048096,9.741426,0.034038,-0.032553,-0.068411,0.155742,-0.698890,-0.063047
1.960000,0.029777,-0.043558,9.760779,0.033266,-0.027436,-0.035499,0.128496,-0.750741,0.008192
2.000000,0.063497,-0.001809,9.779297,0.049540,-0.009168,-0.069446,0.146180,-0.702015,-0.051907
2.040000,-0.052913,-0.016529,9.744994,-0.046558,-0.020221,-0.071995,0.139975,-0.737977,-0.037576
2.080000,-0.008092,-0.018877,9.737342,-0.008551,-0.032344,-0.072335,0.127160,-0.741085,-0.064788
2.120000,0.034384,-0.043807,9.763117,0.031290,-0.062244,-0.060688,0.127596,-0.797307,-0.051289
2.160000,0.010900,-0.027528,9.701477,-0.000920,-0.024524,-0.113847,0.144844,-0.788195,-0.052958
2.200000,-0.012016,-0.020750,9.730463,-0.021710,-0.017225,-0.076956,0.132093,-0.830258,-0.053419
2.240000,-0.048670,-0.042621,9.745149,-0.051744,-0.029055,-0.062926,0.136260,-0.828968,-0.048775
2.280000,-0.038594,0.032299,9.789713,-0.039341,0.027118,0.002801,0.114636,-0.766599,-0.075042
2.320000,-0.073662,-0.043420,9.872117,-0.064575,-0.022838,0.067600,0.132831,-0.828248,-0.077530
2.360000,-0.107253,-0.015918,10.022278,-0.105329,-0.006215,0.219858,0.121132,-0.794946,-0.086133
2.400000,-0.015445,-0.007488,10.177270,-0.038072,-0.010574,0.362454,0.085195,-0.811429,-0.109369
2.440000,-0.104791,-0.026653,10.357577,-0.095207,-0.020064,0.550753,0.089655,-0.851852,-0.109751
2.480000,-0.095299,-0.035722,10.509041,-0.089674,-0.035249,0.688754,0.075162,-0.820682,-0.100845
2.520000,-0.143854,-0.015273,10.534264,-0.130033,-0.013203,0.722768,0.065760,-0.810184,-0.072310
2.560000,-0.106172,-0.011650,10.522884,-0.098699,-0.000530,0.725503,0.135996,-0.807066,-0.090856
2.600000,-0.069004,-0.019891,10.445258,-0.057172,0.000767,0.612927,0.110687,-0.878400,-0.104690
2.640000,-0.065376,0.043073,10.312967,-0.053118,0.036072,0.508766,0.095237,-0.871302,-0.110492
2.680000,-0.063716,0.053047,10.184673,-0.066944,0.054825,0.366360,0.075786,-0.858076,-0.130781
2.720000,-0.064339,0.098244,10.015219,-0.071643,0.094849,0.224885,0.050541,-0.913819,-0.127469
2.760000,-0.037817,0.043062,9.979698,-0.041343,0.043647,0.158146,0.033696,-0.890482,-0.108272
2.800000,-0.023410,0.102032,9.850871,-0.013193,0.102795,0.065410,0.046053,-0.959594,-0.112901
2.840000,-0.062281,0.093231,9.919027,-0.045440,0.091596,0.079971,0.030150,-0.989412,-0.099018
2.880000,-0.003253,0.094187,9.824754,0.017197,0.096111,0.004483,0.053070,-1.018990,-0.120247
2.920000,0.037378,0.079942,9.900802,0.049568,0.083327,0.094065,0.036009,-1.137435,-0.105717
2.960000,0.037991,0.124152,9.944742,0.048250,0.134202,0.126171,0.044215,-1.156459,-0.148652
3.000000,0.063240,0.080392,9.822083,0.067829,0.055567,0.031094,0.026016,-1.230052,-0.137788
3.040000,0.069873,0.061910,9.846994,0.067250,0.051840,0.040028,-0.018600,-1.298141,-0.114109
3.080000,0.103956,0.071701,9.851635,0.107824,0.056791,0.030461,0.005785,-1.378999,-0.119446
3.120000,0.168727,0.062262,9.786510,0.152882,0.049571,-0.032086,0.010990,-1.441550,-0.105218
3.160000,0.179961,0.026535,9.791938,0.156894,0.029328,-0.017946,0.002737,-1.590401,-0.096467
3.200000,0.111699,0.003334,9.799315,0.112763,0.005151,-0.015418,-0.019849,-1.556032,-0.095369
3.240000,0.100118,0.001502,9.787568,0.119258,0.001473,-0.038642,-0.024538,-1.687119,-0.087700
3.280000,0.154738,-0.018567,9.766421,0.160106,-0.014925,-0.054425,-0.033996,-1.671206,-0.082435
3.320000,0.131365,-0.040005,9.706482,0.134033,-0.048784,-0.075339,-0.060019,-1.795098,-0.125220
3.360000,0.129537,-0.026846,9.711395,0.122677,-0.018711,-0.098489,-0.033083,-1.844705,-0.071157
3.400000,0.035105,-0.079428,9.751979,0.048466,-0.068760,-0.058301,-0.022748,-1.849962,-0.058229
3.440000,0.082297,-0.112629,9.764076,0.098528,-0.099665,-0.027166,-0.053615,-1.884354,-0.140745
3.480000,0.050402,-0.075221,9.655901,0.047781,-0.071981,-0.138262,-0.074637,-1.901162,-0.124969
3.520000,0.032089,-0.165718,9.695002,0.037557,-0.161000,-0.137456,-0.035529,-1.914574,-0.104307
3.560000,-0.016089,-0.148392,9.698765,-0.010463,-0.142204,-0.100345,-0.033691,-1.928155,-0.105007
3.600000,0.014395,-0.118553,9.740398,0.023192,-0.119391,-0.063250,-0.075188,-1.924895,-0.141342
3.640000,-0.071519,-0.151964,9.762262,-0.067481,-0.140306,-0.035742,-0.090462,-1.882747,-0.124395
3.680000,-0.016356,-0.076323,9.829323,-0.018346,-0.083746,0.013124,-0.079812,-1.887485,-0.098688
3.720000,-0.112699,-0.085131,9.888625,-0.088667,-0.074161,0.074435,-0.076386,-1.832395,-0.104834
3.760000,-0.113034,-0.050807,10.007673,-0.113197,-0.039080,0.168596,-0.095950,-1.836435,-0.085357
3.800000,-0.140564,-0.084524,10.156001,-0.147440,-0.078087,0.354049,-0.123178,-1.741309,-0.055801
3.840000,-0.146455,-0.032470,10.279946,-0.150927,-0.031089,0.462092,-0.077237,-1.695211,-0.116795
3.880000,-0.130063,0.015251,10.470077,-0.151135,0.006646,0.688380,-0.096123,-1.646741,-0.042461
3.920000,-0.150654,-0.001198,10.631240,-0.146279,-0.000452,0.842513,-0.074345,-1.550777,-0.047820
3.960000,-0.135951,0.025128,10.602378,-0.135022,0.041175,0.772405,-0.108662,-1.505065,-0.116523
4.000000,-0.135138,0.039456,10.520556,-0.147873,0.034581,0.693980,-0.084074,-1.471414,-0.102313
4.040000,-0.118283,0.094012,10.438375,-0.118823,0.089329,0.621716,-0.121879,-1.428059,-0.082820
4.080000,-0.073127,0.049193,10.299049,-0.088182,0.054997,0.472151,-0.133078,-1.409332,-0.089997
4.120000,-0.064899,0.052105,10.098839,-0.073067,0.050397,0.304974,-0.134446,-1.372444,-0.055362
4.160000,-0.061157,0.106328,9.962838,-0.062596,0.091983,0.128048,-0.091206,-1.344818,-0.050267
4.200000,-0.042265,0.099602,9.862194,-0.042150,0.108244,0.067717,-0.134488,-1.323963,-0.056001
4.240000,-0.058373,0.136411,9.873053,-0.056026,0.126806,0.058191,-0.101941,-1.328768,-0.047122
4.280000,0.001181,0.141518,9.909149,0.001528,0.128862,0.057570,-0.145423,-1.316627,-0.052962
4.320000,-0.013621,0.099602,9.810590,-0.005166,0.097844,0.013820,-0.166292,-1.335969,-0.037955
4.360000,0.078775,0.072703,9.843376,0.072001,0.084992,0.013149,-0.126804,-1.341635,-0.003161
4.400000,0.095730,0.154681,9.820201,0.076587,0.141612,-0.004294,-0.155568,-1.350175,-0.084617
4.440000,0.099741,0.094631,9.804291,0.117859,0.085471,0.002296,-0.138396,-1.415752,-0.031926
4.480000,0.147850,0.067884,9.766242,0.136062,0.062400,-0.075108,-0.141948,-1.426334,-0.018341
4.520000,0.133504,0.065067,9.745690,0.131084,0.065591,-0.050635,-0.143508,-1.460727,-0.024920
4.560000,0.122910,0.026810,9.788487,0.112466,0.015236,-0.020964,-0.115290,-1.522294,-0.011959
4.600000,0.072480,-0.005860,9.723537,0.078351,0.002641,-0.096086,-0.144008,-1.496006,0.010517
4.640000,0.146864,0.029726,9.712029,0.148678,0.021155,-0.096537,-0.147216,-1.583613,-0.019004
4.680000,0.139988,-0.045924,9.779272,0.127333,-0.042707,-0.077355,-0.157017,-1.556166,0.040293
4.720000,0.143443,-0.084986,9.680477,0.143935,-0.068222,-0.110651,-0.139238,-1.650040,-0.028783
4.760000,0.138351,-0.069963,9.724594,0.130101,-0.059917,-0.109675,-0.140910,-1.672708,0.018122
4.800000,0.107243,-0.054453,9.698105,0.113127,-0.058493,-0.077960,-0.157454,-1.655825,0.010229
4.840000,0.085264,-0.039832,9.701693,0.087248,-0.042054,-0.064941,-0.129937,-1.642133,0.020470
4.880000,0.025627,-0.072141,9.787987,0.020534,-0.076574,-0.022807,-0.151991,-1.638895,0.035247
4.920000,0.077299,-0.081540,9.762989,0.073252,-0.077869,-0.058067,-0.135176,-1.604648,0.012372
4.960000,-0.002403,-0.116851,9.817897,-0.010672,-0.118961,-0.014454,-0.171948,-1.636071,0.051457
5.000000,-0.019591,-0.082055,9.873401,-0.016182,-0.088310,0.039275,-0.125567,-1.565266,0.073540
5.040000,-0.028185,-0.094042,9.871483,-0.028185,-0.117641,0.058483,-0.156383,-1.593617,0.032814
5.080000,-0.028241,-0.064692,9.866053,-0.037933,-0.060771,0.048578,-0.126470,-1.532824,0.032772
5.120000,-0.048408,-0.062194,9.915758,-0.062834,-0.072441,0.102114,-0.112093,-1.465271,0.072877
5.160000,-0.091142,-0.059739,9.974403,-0.082752,-0.066205,0.141514,-0.127022,-1.430727,0.071586
5.200000,-0.048101,-0.039107,10.079255,-0.059981,-0.040334,0.287786,-0.109466,-1.329624,0.024909
5.240000,-0.129153,-0.065222,10.273864,-0.121466,-0.052209,0.473835,-0.151170,-1.296358,0.071469
5.280000,-0.101410,-0.024522,10.457290,-0.103488,-0.038420,0.634448,-0.128132,-1.189672,0.080022
5.320000,-0.144486,-0.033798,10.566940,-0.147308,-0.036286,0.741148,-0.136108,-1.126776,0.067413
5.360000,-0.124217,0.039559,10.661354,-0.119344,0.045468,0.831167,-0.132845,-1.099347,0.102405
5.400000,-0.130221,-0.000902,10.590142,-0.128446,0.007942,0.781199,-0.147476,-1.026577,0.044080
5.440000,-0.081918,0.019910,10.468615,-0.064226,0.017300,0.666086,-0.110404,-0.957634,0.036806
5.480000,-0.061647,0.043270,10.338471,-0.068894,0.052649,0.517914,-0.089122,-0.862366,0.104628
5.520000,-0.085751,0.038307,10.156551,-0.082975,0.043994,0.363003,-0.078359,-0.864541,0.070457
5.560000,-0.130996,-0.013744,10.064657,-0.130578,-0.007831,0.229663,-0.120398,-0.849581,0.089271
5.600000,-0.081479,0.105760,9.902690,-0.075755,0.105298,0.100234,-0.104285,-0.754998,0.070408
5.640000,-0.044435,0.051240,9.854219,-0.051716,0.045235,0.048369,-0.104777,-0.726729,0.113069
5.680000,-0.018129,0.033578,9.738935,-0.019982,0.036755,-0.082335,-0.101272,-0.706593,0.105640
5.720000,0.009226,0.050208,9.772936,0.020718,0.052334,-0.026170,-0.086015,-0.638945,0.098815
5.760000,-0.023499,0.041533,9.725579,-0.022374,0.040450,-0.067181,-0.074552,-0.642012,0.079255
5.800000,-0.019958,0.028912,9.728555,-0.009607,0.036397,-0.098736,-0.075493,-0.583474,0.103058
5.840000,-0.008482,0.040089,9.737489,-0.008686,0.045961,-0.056865,-0.092174,-0.605365,0.115081
5.880000,0.047448,-0.014841,9.780650,0.040620,-0.010168,-0.033247,-0.039471,-0.488433,0.099742
5.920000,-0.006249,0.050201,9.730224,-0.008176,0.047321,-0.080099,-0.049728,-0.525752,0.102220
5.960000,0.009884,0.061141,9.728415,0.005541,0.045053,-0.053095,-0.039767,-0.562887,0.113995
6.000000,0.073777,-0.041329,9.705683,0.063206,-0.028872,-0.088616,-0.032888,-0.557889,0.128696
6.040000,0.081302,0.019500,9.807291,0.089489,0.017109,-0.008029,-0.023790,-0.538483,0.124948
6.080000,0.046918,-0.025195,9.720869,0.051305,-0.022900,-0.107626,-0.027199,-0.510924,0.141053
6.120000,0.020729,-0.020727,9.746907,0.038727,-0.019029,-0.051661,-0.041035,-0.536026,0.116611
6.160000,0.092861,-0.009948,9.784284,0.096656,-0.005068,-0.012426,0.011875,-0.548787,0.139349
6.200000,0.017672,0.014367,9.798649,0.023805,0.002954,-0.020821,0.000306,-0.549927,0.096267
6.240000,0.024342,-0.038514,9.859302,0.017802,-0.014256,0.037275,-0.024430,-0.506671,0.127853
6.280000,0.015414,-0.071383,9.773847,0.010801,-0.060027,-0.050164,-0.018146,-0.515261,0.126900
6.320000,0.069989,-0.014495,9.837602,0.054980,-0.025396,0.024291,0.045319,-0.479237,0.167070
6.360000,0.019221,-0.003789,9.836828,0.024235,-0.015438,0.034786,0.008262,-0.526792,0.106243
6.400000,0.021501,-0.029108,9.874218,0.017535,-0.046708,0.052463,0.003932,-0.447288,0.095162
6.440000,0.013917,-0.044324,9.830102,0.006514,-0.047390,0.021361,0.012818,-0.450818,0.103122
6.480000,0.004491,-0.021318,9.895443,-0.018422,-0.026140,0.075378,0.038352,-0.468719,0.105041
6.520000,-0.015342,-0.026144,9.899657,-0.019697,-0.007513,0.097439,0.025680,-0.396441,0.124849
6.560000,-0.039995,-0.033023,9.963541,-0.039515,-0.033053,0.156690,0.043661,-0.372480,0.090221
6.600000,-0.026951,-0.003987,10.073183,-0.028208,-0.009583,0.255152,0.092918,-0.383649,0.120937
6.640000,-0.008600,-0.048517,10.116895,-0.013253,-0.043638,0.337752,0.020970,-0.325242,0.113127
6.680000,-0.012612,-0.002772,10.322717,-0.026346,-0.001850,0.492636,0.049853,-0.353158,0.128965
6.720000,-0.005802,-0.038394,10.478896,-0.001547,-0.050716,0.669651,0.064685,-0.353979,0.121118
6.760000,-0.021894,0.020373,10.549131,-0.014785,0.005806,0.781405,0.033563,-0.278722,0.123180
6.800000,0.010704,0.025558,10.520453,-0.015515,0.023055,0.707918,0.084458,-0.275062,0.114151
6.840000,-0.051586,-0.001055,10.543441,-0.040318,-0.000546,0.739941,0.097178,-0.263234,0.125229
6.880000,-0.038652,0.027051,10.391802,-0.047208,0.019762,0.597437,0.056533,-0.198005,0.069444
6.920000,-0.038148,0.010029,10.227214,-0.042310,0.013723,0.387847,0.087568,-0.188244,0.067367
6.960000,0.018857,-0.015083,10.036050,0.015637,-0.025523,0.213495,0.097609,-0.135238,0.093137
7.000000,-0.064331,-0.025003,9.870356,-0.052054,-0.019754,0.062725,0.110042,-0.149824,0.092155
7.040000,0.025632,0.008665,9.762981,-0.001459,0.001164,-0.047836,0.156370,-0.131864,0.066763
7.080000,0.002885,0.006354,9.800280,0.001120,0.006551,-0.013726,0.092444,-0.154390,0.095083
7.120000,-0.023514,-0.015789,9.743988,-0.018363,-0.009598,-0.041587,0.122125,-0.174360,0.054292
7.160000,-0.013310,-0.017546,9.770738,-0.000013,-0.021138,-0.078694,0.112756,-0.061078,0.071392
7.200000,-0.013091,-0.066803,9.753129,0.007018,-0.062880,-0.057538,0.113087,-0.089175,0.072643
7.240000,-0.017567,0.059285,9.790855,-0.024608,0.049343,-0.046272,0.122928,-0.053566,0.080577
7.280000,-0.022642,0.039027,9.671953,-0.014266,0.048970,-0.125326,0.134177,-0.116465,0.055076
7.320000,0.000300,-0.013746,9.763388,0.002982,-0.015993,-0.055413,0.129311,-0.055992,0.085387
7.360000,-0.001733,-0.039441,9.733203,0.004291,-0.032120,-0.059044,0.137575,-0.069007,0.090500
7.400000,-0.023059,0.051063,9.741202,-0.028437,0.039052,-0.025572,0.133198,-0.045461,0.083385
7.440000,0.011053,-0.044317,9.805392,0.007158,-0.051464,-0.018173,0.118589,-0.053888,0.084428
7.480000,0.015353,0.025729,9.827992,0.007832,0.026177,0.015068,0.156143,-0.070975,0.065161
7.520000,0.037131,0.015319,9.762590,0.029229,0.015472,-0.039456,0.162247,-0.055443,0.051641
7.560000,-0.004079,0.006869,9.822556,0.003080,-0.009975,0.063182,0.163190,-0.068769,0.019788
7.600000,-0.020665,0.040544,9.825772,-0.007199,0.032953,0.022830,0.158675,-0.036667,0.018869
7.640000,0.019777,-0.026412,9.861841,0.021262,-0.018854,0.047737,0.131061,-0.075251,0.044458
7.680000,0.034255,0.027662,9.803957,0.029082,0.018315,0.010117,0.128666,-0.070721,-0.014846
7.720000,-0.033142,-0.014764,9.880379,-0.034224,-0.009137,0.068401,0.166974,-0.054984,0.042501
7.760000,-0.032235,-0.031851,9.877165,-0.013542,-0.033381,0.076685,0.125255,-0.033364,-0.000863
7.800000,-0.053500,0.027169,9.869423,-0.054074,0.048151,0.077448,0.136074,-0.045135,-0.004207
7.840000,-0.035955,-0.012344,9.865024,-0.025950,-0.020493,0.057159,0.192908,-0.052313,0.017195
7.880000,0.034821,-0.019994,9.816303,0.034599,-0.013297,0.038851,0.160107,-0.015333,0.002487
7.920000,-0.020235,0.015968,9.905363,-0.029880,0.018044,0.087841,0.152862,-0.024583,-0.016307
7.960000,-0.016738,0.015100,9.818362,0.008195,0.029032,0.006887,0.112119,-0.048299,-0.030912
