Timestamp,Accel_X,Accel_Y,Accel_Z,UserAccel_X,UserAccel_Y,UserAccel_Z,Gyro_X,Gyro_Y,Gyro_Z
0.000000,-0.023450,0.098151,9.699296,-0.027831,0.091848,-0.137118,0.026377,0.180012,-0.015817
0.040000,0.064939,0.053798,10.001837,0.058462,0.060864,0.174485,0.107929,0.174871,0.097871
0.080000,0.106084,0.082159,10.263696,0.099959,0.077637,0.468185,0.245852,0.141677,0.220328
0.120000,0.162344,0.056002,10.852971,0.154609,0.054490,1.046894,0.340458,0.098705,0.215674
0.160000,0.105877,-0.001686,10.927826,0.111849,-0.015651,1.093567,0.381901,-0.005874,0.260807
0.200000,0.076845,-0.051911,10.543646,0.078504,-0.060123,0.725530,0.334005,-0.089199,0.138393
0.240000,0.066962,-0.111356,9.946333,0.055458,-0.112033,0.140857,0.197989,-0.126803,0.136219
0.280000,0.059763,-0.047712,9.773780,0.064478,-0.065198,-0.021332,0.098351,-0.177401,0.080533
0.320000,0.022596,-0.090482,9.767071,0.028229,-0.096055,-0.040682,-0.076876,-0.161423,-0.013589
0.360000,-0.074783,-0.044767,9.876346,-0.084717,-0.050778,0.074616,-0.207287,-0.151295,-0.172597
0.400000,-0.113792,-0.019052,9.888390,-0.105817,-0.034083,0.072209,-0.304866,-0.056887,-0.202589
0.440000,-0.088607,0.007114,9.856206,-0.077149,-0.001453,0.052483,-0.365304,0.015090,-0.223799
0.480000,-0.104297,0.018099,9.731228,-0.093785,0.015940,-0.059424,-0.315837,0.044819,-0.265639
0.520000,-0.084061,0.011170,9.765087,-0.111071,0.011949,-0.066863,-0.244537,0.179106,-0.244922
0.560000,-0.080706,0.065044,9.739699,-0.090759,0.085234,-0.081169,-0.172863,0.169723,-0.155526
0.600000,-0.021629,0.086525,9.798164,-0.027833,0.104982,0.008116,-0.016762,0.196027,-0.063751
0.640000,0.056648,0.143678,9.912692,0.066049,0.144852,0.114486,0.109090,0.215849,0.107230
0.680000,0.042633,0.034253,10.323144,0.037657,0.039806,0.498947,0.214660,0.194078,0.176211
0.720000,0.133234,-0.000849,10.712928,0.116299,-0.001037,0.919703,0.291057,0.107415,0.218073
0.760000,0.111786,-0.026864,10.947830,0.108182,-0.037034,1.141234,0.402339,0.009069,0.222883
0.800000,0.074745,-0.043289,10.605806,0.085810,-0.035563,0.801622,0.294372,-0.084283,0.258931
0.840000,0.068713,-0.052021,10.114586,0.063375,-0.036257,0.319053,0.248859,-0.122577,0.157424
0.880000,0.059482,-0.062655,9.852834,0.061088,-0.049663,0.064066,0.115669,-0.150196,0.083456
0.920000,0.002993,-0.042264,9.772469,0.001624,-0.032423,-0.036435,-0.075236,-0.162641,-0.055896
0.960000,-0.039856,-0.068952,9.836412,-0.030194,-0.057551,0.045020,-0.163547,-0.158672,-0.161682
1.000000,-0.129917,-0.082576,9.774203,-0.122296,-0.083008,-0.023868,-0.274299,-0.124881,-0.172253
1.040000,-0.173171,0.005624,9.947988,-0.168441,-0.009766,0.121000,-0.342767,-0.028539,-0.242220
1.080000,-0.120660,-0.040849,9.777051,-0.112879,-0.046997,-0.018607,-0.356024,0.019522,-0.240259
1.120000,-0.099766,0.042704,9.766933,-0.099175,0.035816,-0.052214,-0.285800,0.056674,-0.194735
1.160000,-0.084097,0.058057,9.745915,-0.077258,0.055866,-0.083230,-0.165867,0.130648,-0.099374
1.200000,-0.058886,0.080785,9.787809,-0.075254,0.093173,-0.020049,-0.069701,0.167858,0.003210
1.240000,0.064147,0.112283,9.935707,0.059231,0.089877,0.115511,0.142871,0.151490,0.037319
1.280000,-0.004123,0.035634,10.141494,-0.011704,0.038814,0.348633,0.247084,0.146175,0.153560
1.320000,0.127054,0.021437,10.679254,0.128445,0.013678,0.854430,0.242628,0.043035,0.193525
1.360000,0.119012,-0.017431,10.966850,0.139065,0.004949,1.143949,0.343027,-0.025705,0.254769
1.400000,0.137243,-0.016047,10.709078,0.128849,-0.015157,0.869978,0.389310,-0.026598,0.220379
1.440000,0.080398,-0.036572,10.174609,0.081494,-0.034853,0.341170,0.256653,-0.098264,0.165920
1.480000,-0.022145,-0.091989,9.814862,-0.026310,-0.089318,-0.000427,0.102998,-0.157248,0.081991
1.520000,-0.055774,-0.095388,9.839441,-0.055061,-0.081373,-0.025766,0.001604,-0.136098,-0.021239
1.560000,-0.102000,-0.100776,9.876572,-0.079733,-0.102760,0.048896,-0.220479,-0.180689,-0.036770
1.600000,-0.042177,-0.069655,9.921120,-0.037873,-0.081853,0.085662,-0.261613,-0.091085,-0.251001
1.640000,-0.095924,-0.058831,9.869216,-0.087660,-0.079829,0.068438,-0.351754,-0.053466,-0.245433
1.680000,-0.123115,0.008531,9.820765,-0.125191,-0.007957,0.018140,-0.345375,0.070760,-0.292880
1.720000,-0.116828,0.093026,9.728955,-0.121410,0.080380,-0.082491,-0.337753,0.102741,-0.208151
1.760000,-0.043437,0.125479,9.686908,-0.064984,0.108391,-0.103045,-0.211457,0.123012,-0.184633
1.800000,0.006689,0.113865,9.745382,0.002021,0.095605,-0.065375,-0.143929,0.218909,-0.049120
1.840000,0.029438,0.098893,9.903828,0.035042,0.108130,0.094613,0.059930,0.164662,0.033797
1.880000,0.024904,0.090942,10.136922,0.029133,0.088426,0.305038,0.212901,0.110061,0.181452
1.920000,0.151745,0.031857,10.629157,0.146589,0.044622,0.795813,0.337978,0.135477,0.172611
1.960000,0.141395,-0.059666,10.967754,0.132946,-0.065053,1.155333,0.422163,0.038290,0.207744
2.000000,0.085602,0.040786,10.809370,0.098060,0.043247,1.006825,0.308300,-0.080525,0.203078
2.040000,0.096739,-0.061044,10.206670,0.099212,-0.059498,0.360860,0.276251,-0.121971,0.197374
2.080000,0.083721,-0.081913,9.824726,0.085269,-0.079177,0.045134,0.134953,-0.166776,0.109446
2.120000,-0.003966,-0.061127,9.758757,0.012189,-0.036171,-0.020207,-0.004577,-0.205787,-0.006198
2.160000,-0.027404,-0.087915,9.881682,-0.034606,-0.068826,0.062068,-0.134315,-0.190369,-0.079121
2.200000,-0.040102,0.029339,9.920901,-0.042353,0.020780,0.112288,-0.259898,-0.125197,-0.250710
2.240000,-0.134703,-0.058294,9.902711,-0.132739,-0.051556,0.098855,-0.274027,-0.029419,-0.243562
2.280000,-0.146786,0.047347,9.740213,-0.149220,0.037118,-0.033202,-0.357957,0.039577,-0.250357
2.320000,-0.113427,0.028685,9.756003,-0.119960,0.030297,-0.036432,-0.343110,0.069218,-0.215742
2.360000,-0.029528,0.050053,9.771327,-0.048868,0.065915,-0.068232,-0.210744,0.167504,-0.153011
2.400000,0.005449,0.037059,9.813720,-0.001099,0.051064,-0.022429,-0.119262,0.220040,-0.055131
2.440000,0.012911,0.053326,9.905861,0.024361,0.060043,0.080049,0.045857,0.152833,0.053622
2.480000,0.068356,0.096436,10.026066,0.040156,0.105713,0.232389,0.223032,0.173763,0.194536
2.520000,0.142684,0.058365,10.583161,0.153908,0.059250,0.779824,0.285689,0.099766,0.230372
2.560000,0.087460,0.028231,10.938577,0.083563,0.025710,1.136626,0.360953,0.022067,0.201037
2.600000,0.100419,-0.065466,10.850258,0.102488,-0.068867,1.053795,0.332721,-0.043313,0.266871
2.640000,0.072041,-0.095274,10.296830,0.073226,-0.097556,0.497713,0.283032,-0.085888,0.191664
2.680000,0.092113,-0.089424,9.855424,0.088321,-0.098264,0.047442,0.143855,-0.195702,0.100102
2.720000,0.008276,-0.081626,9.803809,0.003726,-0.091653,0.023323,0.050705,-0.178484,-0.025037
2.760000,0.023224,-0.087817,9.861119,0.009420,-0.078522,0.027502,-0.156022,-0.179750,-0.092462
2.800000,-0.064705,-0.067474,9.871116,-0.058123,-0.048827,0.063826,-0.263614,-0.129615,-0.165626
2.840000,-0.134356,-0.007425,9.827535,-0.138353,-0.000640,0.027579,-0.319640,-0.075033,-0.207987
2.880000,-0.123417,0.045946,9.751392,-0.129495,0.045112,-0.027082,-0.325233,-0.019313,-0.283454
2.920000,-0.101696,0.033727,9.655908,-0.125230,0.038981,-0.169747,-0.312192,0.132118,-0.240438
2.960000,-0.033408,0.040628,9.689242,-0.038404,0.034298,-0.099917,-0.217729,0.056713,-0.181787
3.000000,-0.023201,0.084648,9.769676,-0.011698,0.097970,-0.049963,-0.144708,0.189268,-0.094758
3.040000,-0.021798,0.100927,9.839935,-0.035542,0.085124,0.047553,0.025640,0.197410,-0.020992
3.080000,0.070447,0.091460,9.981615,0.074880,0.083616,0.169334,0.179612,0.159948,0.090891
3.120000,0.085693,0.080161,10.433282,0.094304,0.084013,0.648930,0.282225,0.116924,0.190931
3.160000,0.091949,-0.001321,10.898849,0.078684,0.006314,1.092254,0.308639,0.060411,0.262068
3.200000,0.094395,0.027175,10.899583,0.093070,0.028694,1.091136,0.318507,-0.048548,0.238220
3.240000,0.090350,-0.076645,10.387988,0.092344,-0.088123,0.574755,0.284292,-0.112108,0.169588
3.280000,0.013479,-0.050217,9.937715,-0.003380,-0.046225,0.110047,0.206209,-0.161674,0.123049
3.320000,0.018048,-0.104576,9.836788,0.023175,-0.098761,0.016458,0.111233,-0.162961,-0.003193
3.360000,-0.035404,-0.070273,9.903390,-0.030205,-0.070224,0.062130,-0.128245,-0.156731,-0.046338
3.400000,-0.079151,-0.064330,9.835862,-0.084117,-0.051777,0.054471,-0.221585,-0.169158,-0.114815
3.440000,-0.128748,-0.035637,9.984368,-0.106178,-0.046393,0.132542,-0.343425,-0.081456,-0.221022
3.480000,-0.125015,-0.017044,9.760759,-0.126626,-0.023258,-0.068045,-0.350283,-0.026278,-0.229861
3.520000,-0.145043,0.012084,9.783803,-0.145838,0.003027,-0.017349,-0.338569,0.037251,-0.255407
3.560000,-0.113139,0.078676,9.767388,-0.104601,0.064821,-0.062393,-0.236788,0.113532,-0.171391
3.600000,-0.067657,0.085504,9.840335,-0.067486,0.093411,-0.004995,-0.188484,0.135064,-0.094309
3.640000,0.026011,0.134716,9.829013,0.023417,0.134561,-0.003239,0.003221,0.127041,0.037935
3.680000,0.020056,0.063331,9.929351,0.020489,0.064277,0.139099,0.156247,0.165700,0.090036
3.720000,0.083078,0.021546,10.355381,0.074915,0.005703,0.544560,0.272996,0.145997,0.186697
3.760000,0.118518,0.032831,10.839022,0.115820,0.036975,1.013926,0.345328,0.043351,0.205032
3.800000,0.071636,-0.080109,10.905804,0.073330,-0.062208,1.096434,0.351987,0.006404,0.265672
3.840000,0.096245,0.002296,10.439701,0.089231,0.006897,0.620904,0.337844,-0.068184,0.193663
3.880000,0.072681,-0.033707,9.937871,0.069997,-0.042567,0.117677,0.242047,-0.171758,0.133110
3.920000,0.058610,-0.103313,9.725709,0.028596,-0.108643,-0.064560,0.063624,-0.199880,0.021375
3.960000,-0.005069,-0.126670,9.909680,-0.015302,-0.125734,0.074507,-0.089818,-0.217679,-0.060519
4.000000,-0.099027,-0.094378,9.859012,-0.093732,-0.090577,0.047181,-0.199704,-0.137302,-0.127329
4.040000,-0.154012,-0.020947,9.894787,-0.136818,-0.024356,0.085683,-0.278142,-0.074158,-0.207159
4.080000,-0.140393,-0.026444,9.804904,-0.133614,-0.032105,0.012895,-0.346520,-0.019311,-0.211956
4.120000,-0.129520,0.048235,9.773661,-0.109099,0.046065,-0.031501,-0.366863,0.031373,-0.260229
4.160000,-0.092912,0.077179,9.739005,-0.099562,0.080668,-0.089730,-0.235209,0.116852,-0.190208
4.200000,-0.087843,0.054928,9.784149,-0.084933,0.055238,-0.030646,-0.137172,0.184691,-0.073834
4.240000,0.055408,0.101014,9.844675,0.063094,0.106482,0.020522,0.043968,0.198681,-0.036269
4.280000,0.027510,0.120585,9.976901,0.021530,0.110246,0.167580,0.110492,0.182904,0.129189
4.320000,0.042626,0.071148,10.295057,0.046319,0.072465,0.483297,0.259239,0.135235,0.224133
4.360000,0.095445,0.034580,10.746376,0.091504,0.043930,0.969211,0.341539,0.097303,0.199952
4.400000,0.143001,0.000702,10.935452,0.145663,-0.021892,1.117626,0.342601,-0.039759,0.321005
4.440000,0.124430,0.016871,10.550965,0.123661,0.024155,0.744864,0.282421,-0.100052,0.212215
4.480000,0.141753,-0.100664,10.043648,0.128849,-0.091732,0.227301,0.228129,-0.167360,0.104704
4.520000,0.010101,-0.102546,9.722033,0.000951,-0.090510,-0.044950,0.078404,-0.185161,0.030689
4.560000,-0.012769,-0.057807,9.892426,-0.027099,-0.050936,0.031760,-0.051746,-0.133263,-0.043829
4.600000,-0.030466,-0.071368,9.876550,-0.033909,-0.078830,0.065080,-0.186298,-0.174018,-0.147852
4.640000,-0.149252,-0.069364,9.882593,-0.131155,-0.053553,0.063359,-0.322437,-0.121753,-0.232876
4.680000,-0.090207,-0.053227,9.844967,-0.083363,-0.054838,0.027222,-0.357623,-0.081910,-0.284909
4.720000,-0.131710,-0.000987,9.826952,-0.115555,0.004842,0.023272,-0.352343,0.062313,-0.286632
4.760000,-0.110049,0.112954,9.772826,-0.119236,0.121069,-0.045608,-0.275883,0.108931,-0.150479
4.800000,-0.109137,0.041924,9.808160,-0.109291,0.059313,-0.025584,-0.154364,0.199911,-0.111327
4.840000,0.017721,0.117618,9.814062,0.005127,0.118061,0.000496,-0.021109,0.221672,0.006572
4.880000,0.093182,0.043656,9.984264,0.082803,0.060793,0.157098,0.138470,0.137374,0.050629
4.920000,0.089983,0.024223,10.294868,0.091241,0.027029,0.469488,0.241064,0.130964,0.155492
4.960000,0.139184,0.012266,10.707777,0.121726,0.008852,0.883649,0.380261,0.110891,0.196887
5.000000,0.137501,-0.000832,11.026122,0.127908,0.021758,1.179104,0.361710,-0.021790,0.233603
5.040000,0.138313,-0.090768,10.653256,0.137498,-0.097707,0.836203,0.280332,-0.042788,0.259329
5.080000,0.122184,-0.027635,10.107862,0.117835,-0.007862,0.299399,0.224736,-0.207120,0.154437
5.120000,-0.033883,-0.043293,9.738533,-0.048022,-0.061453,-0.070616,0.208146,-0.172029,0.075789
5.160000,-0.015664,-0.092848,9.773626,-0.020140,-0.090906,-0.044546,-0.070951,-0.197883,-0.043403
5.200000,-0.083022,-0.102540,9.846700,-0.076361,-0.093910,0.063744,-0.154265,-0.125613,-0.098599
5.240000,-0.101383,-0.062236,9.844986,-0.089617,-0.064284,0.006997,-0.210117,-0.120570,-0.216784
5.280000,-0.131135,0.006588,9.870022,-0.128489,0.015599,0.064899,-0.376845,-0.017772,-0.206099
5.320000,-0.111599,-0.057624,9.786501,-0.104791,-0.033332,-0.021659,-0.296952,0.047431,-0.257838
5.360000,-0.087612,0.054280,9.787840,-0.089654,0.042896,0.003904,-0.243111,0.077821,-0.134956
5.400000,-0.126933,0.097944,9.754785,-0.121781,0.101417,-0.057404,-0.195472,0.178861,-0.098019
5.440000,-0.087160,0.019069,9.786880,-0.083324,0.018312,0.003991,-0.108566,0.194515,-0.039128
5.480000,0.066116,0.056729,9.860209,0.053990,0.058382,0.083858,0.110154,0.128710,0.067261
5.520000,0.066950,0.008568,10.161123,0.050390,0.016873,0.365726,0.217649,0.156048,0.198045
5.560000,0.150363,-0.013068,10.680713,0.158137,-0.001898,0.875645,0.305874,0.068813,0.231810
5.600000,0.141743,0.018814,10.943823,0.145334,0.011519,1.150976,0.370090,0.025530,0.267503
5.640000,0.056721,-0.002971,10.619807,0.059019,-0.008095,0.804090,0.329572,-0.054178,0.298107
5.680000,0.065654,-0.068222,10.229258,0.062516,-0.067789,0.394734,0.205212,-0.094260,0.186269
5.720000,0.056205,-0.108770,9.866433,0.052764,-0.118987,0.052068,0.130115,-0.137794,0.031912
5.760000,-0.021479,-0.106691,9.804242,-0.016403,-0.105947,0.038572,0.002752,-0.203183,-0.001105
5.800000,-0.051192,-0.049302,9.874823,-0.056290,-0.060478,0.065192,-0.133566,-0.178079,-0.071264
5.840000,-0.128369,-0.038836,9.895449,-0.123750,-0.053596,0.073834,-0.224992,-0.125493,-0.179126
5.880000,-0.107953,-0.048346,9.802599,-0.104220,-0.059172,0.000004,-0.391770,-0.021205,-0.273458
5.920000,-0.127736,-0.001504,9.748285,-0.118645,-0.005609,-0.068026,-0.316826,0.008472,-0.250957
5.960000,-0.070646,0.053588,9.721923,-0.081001,0.063685,-0.093374,-0.313219,0.100535,-0.171463
6.000000,-0.062894,0.075182,9.720051,-0.071983,0.070748,-0.067955,-0.199508,0.173002,-0.189505
6.040000,-0.040836,0.042079,9.815879,-0.044303,0.046820,-0.018211,-0.047532,0.177546,-0.104622
6.080000,0.034705,0.093251,9.824078,0.028076,0.086049,0.019869,0.047713,0.228530,0.024813
6.120000,0.091281,0.064602,10.048290,0.080196,0.048449,0.244868,0.191237,0.130857,0.178788
6.160000,0.110481,0.020875,10.588132,0.102961,0.021776,0.769092,0.317639,0.108934,0.152952
6.200000,0.163177,0.002790,10.916032,0.155899,0.013988,1.138133,0.330071,0.034568,0.251655
6.240000,0.078162,-0.048731,10.741895,0.082451,-0.055745,0.906575,0.345998,-0.047375,0.254519
6.280000,0.103719,-0.065058,10.228441,0.118751,-0.064975,0.438089,0.235121,-0.180366,0.190663
6.320000,0.007966,-0.025179,9.943813,0.015872,-0.040542,0.097629,0.189870,-0.170037,0.064850
6.360000,0.046061,-0.005314,9.794434,0.024112,-0.005855,-0.038095,0.036338,-0.232048,0.013345
6.400000,-0.108199,-0.126485,9.929327,-0.105825,-0.125782,0.139535,-0.151232,-0.182170,-0.124731
6.440000,-0.078349,-0.081592,9.868477,-0.094356,-0.082551,0.051811,-0.215787,-0.128678,-0.173513
6.480000,-0.078092,0.008476,9.835244,-0.083507,0.005395,0.044364,-0.313837,0.004977,-0.260305
6.520000,-0.132583,-0.053463,9.799432,-0.132284,-0.033647,0.011301,-0.377670,0.031729,-0.239730
6.560000,-0.119406,0.023920,9.694065,-0.110383,0.032036,-0.065978,-0.291751,0.049830,-0.224952
6.600000,-0.075626,0.126624,9.676290,-0.068593,0.115554,-0.146396,-0.201223,0.144713,-0.197263
6.640000,-0.104192,0.048604,9.768867,-0.102874,0.055125,-0.032003,-0.142605,0.185824,-0.051664
6.680000,0.023649,0.071406,9.853655,0.024995,0.071697,0.027955,-0.024228,0.181307,0.030043
6.720000,0.039360,0.027159,10.042078,0.033896,0.029450,0.227568,0.172113,0.153733,0.140834
6.760000,0.119717,0.059102,10.505569,0.126501,0.065970,0.719917,0.266535,0.085476,0.211761
6.800000,0.107726,-0.040287,10.963928,0.114144,-0.038676,1.137107,0.363282,0.044557,0.275626
6.840000,0.132966,-0.048898,10.814283,0.124241,-0.038681,0.993897,0.321519,-0.032528,0.260891
6.880000,0.078530,-0.101570,10.337429,0.059544,-0.086761,0.537021,0.262902,-0.087237,0.212517
6.920000,0.082862,-0.077193,9.874096,0.082007,-0.079253,0.044593,0.227265,-0.131453,0.066097
6.960000,0.014388,-0.007811,9.851190,0.009954,-0.023928,0.046599,0.073355,-0.154889,0.011955
7.000000,-0.085110,-0.057032,9.882906,-0.083643,-0.064503,0.088629,-0.153399,-0.167973,-0.156419
7.040000,-0.097300,-0.044835,9.845811,-0.096657,-0.052515,0.039625,-0.192104,-0.139129,-0.211555
7.080000,-0.092716,-0.013738,9.912145,-0.090598,-0.024281,0.109539,-0.270967,-0.052342,-0.196201
7.120000,-0.121002,0.000359,9.798628,-0.117504,-0.001696,0.018308,-0.353593,-0.026920,-0.267515
7.160000,-0.085152,0.070063,9.720852,-0.090703,0.069827,-0.036417,-0.333233,-0.003735,-0.199442
7.200000,-0.088469,0.072938,9.755837,-0.094639,0.081531,-0.087100,-0.295706,0.079089,-0.198464
7.240000,-0.007662,0.044286,9.768717,-0.005223,0.036404,-0.063928,-0.156185,0.113509,-0.091098
7.280000,0.043964,0.111789,9.841254,0.049707,0.109018,0.001692,0.023660,0.196359,0.019533
7.320000,-0.002530,0.070759,9.976297,0.002242,0.077641,0.148257,0.151251,0.162791,0.160327
7.360000,0.116915,0.059927,10.363654,0.110398,0.063076,0.561932,0.265541,0.134838,0.222915
7.400000,0.151980,-0.051643,10.864487,0.160004,-0.040378,1.058007,0.350373,0.060291,0.223545
7.440000,0.120959,-0.007736,10.850972,0.131126,-0.012988,1.053292,0.399259,0.001860,0.228263
7.480000,0.100452,-0.032432,10.379618,0.097629,-0.047880,0.558796,0.276088,-0.064442,0.211480
7.520000,0.023513,-0.099088,9.957114,0.024182,-0.087792,0.137655,0.174244,-0.122396,0.204716
7.560000,0.007186,-0.036290,9.792178,0.008576,-0.046741,-0.010965,0.053573,-0.148606,0.039695
7.600000,-0.038420,-0.114467,9.833604,-0.046754,-0.126558,0.014841,-0.094240,-0.125198,-0.090019
7.640000,-0.049865,0.016278,9.898474,-0.049348,0.027907,0.065272,-0.164757,-0.079070,-0.180844
7.680000,-0.084161,-0.091862,9.885314,-0.077613,-0.071188,0.075371,-0.314038,-0.082485,-0.229163
7.720000,-0.124562,0.008707,9.769669,-0.126270,0.008078,-0.017057,-0.321035,0.032542,-0.242782
7.760000,-0.149791,0.031319,9.666744,-0.143269,0.033056,-0.152386,-0.251736,0.042417,-0.265930
7.800000,-0.144090,0.087610,9.753554,-0.152941,0.089812,-0.031985,-0.202365,0.107376,-0.156763
7.840000,-0.030703,0.135021,9.731614,-0.030928,0.123755,-0.062209,-0.141769,0.215386,-0.120490
7.880000,0.004708,0.063419,9.828346,0.014994,0.066939,0.012823,-0.008939,0.183041,0.039128
7.920000,-0.012990,0.102277,9.971419,-0.014546,0.078083,0.149045,0.117010,0.113849,0.108427
7.960000,0.095552,0.025108,10.310999,0.103502,0.040466,0.499092,0.264867,0.083931,0.173561
8.000000,0.148950,-0.012959,10.798559,0.138675,-0.004285,1.008818,0.286215,0.032434,0.150445
8.040000,0.034223,-0.015731,10.981861,0.035211,-0.007005,1.116159,0.416085,-0.053314,0.235227
8.080000,0.078854,-0.042106,10.480754,0.072558,-0.040233,0.681189,0.288870,-0.072618,0.215237
8.120000,0.138588,-0.049587,9.942845,0.144770,-0.063791,0.123746,0.211107,-0.170180,0.148505
8.160000,0.025660,-0.100480,9.790023,0.027595,-0.089311,-0.008294,0.087344,-0.183803,0.071360
8.200000,0.049046,-0.077410,9.843424,0.044901,-0.068374,0.052221,-0.100873,-0.195028,-0.060835
8.240000,-0.063852,-0.048776,9.870559,-0.062279,-0.042429,0.059519,-0.167818,-0.189196,-0.126128
8.280000,-0.078793,-0.079090,9.912762,-0.069876,-0.078192,0.111607,-0.282937,-0.134038,-0.242313
8.320000,-0.121609,0.009100,9.855057,-0.128788,0.007484,0.043152,-0.354153,0.002541,-0.219716
8.360000,-0.133363,0.064779,9.770330,-0.136189,0.068681,-0.026552,-0.324562,0.058938,-0.212185
8.400000,-0.151809,-0.000166,9.714133,-0.141058,0.012722,-0.098561,-0.271430,0.018800,-0.184745
8.440000,-0.041838,0.075177,9.724079,-0.038211,0.076149,-0.070914,-0.156596,0.141846,-0.090941
8.480000,-0.040292,0.107868,9.856832,-0.032093,0.093532,0.025302,-0.036901,0.206555,-0.023336
8.520000,0.008600,0.107401,9.863332,0.013458,0.098247,0.047374,0.129129,0.185125,0.082057
8.560000,0.032512,0.079249,10.231057,0.037029,0.083818,0.423565,0.259325,0.191832,0.166821
8.600000,0.109790,0.066296,10.772467,0.112164,0.065581,0.962796,0.301449,0.058530,0.269768
8.640000,0.128211,0.006056,10.943176,0.142402,0.001063,1.140715,0.359146,0.004483,0.254180
8.680000,0.096307,-0.056039,10.582273,0.100465,-0.064889,0.769886,0.257747,-0.105171,0.200252
8.720000,0.077209,-0.056389,10.093447,0.067575,-0.071734,0.253494,0.264507,-0.183638,0.158371
8.760000,0.097076,-0.030695,9.791153,0.079835,-0.033381,-0.007422,0.063818,-0.161599,0.055377
8.800000,-0.075096,-0.117485,9.833938,-0.063691,-0.105759,0.020730,-0.094817,-0.190368,-0.027589
8.840000,0.003146,-0.068341,9.853161,-0.007640,-0.053036,0.058512,-0.194296,-0.074394,-0.135155
8.880000,-0.116267,-0.014823,9.868470,-0.138626,-0.020851,0.108109,-0.278039,-0.121608,-0.246297
8.920000,-0.123266,-0.012088,9.901574,-0.121304,0.002386,0.079317,-0.350973,-0.048578,-0.278735
8.960000,-0.101210,0.053001,9.786574,-0.106318,0.044843,-0.044994,-0.316732,0.040592,-0.257054
9.000000,-0.057636,0.040107,9.758201,-0.067784,0.046071,-0.060512,-0.289343,0.134019,-0.162449
9.040000,-0.112849,0.053919,9.776772,-0.108491,0.066071,-0.079921,-0.181233,0.181184,-0.182369
9.080000,0.000861,0.139100,9.736478,-0.008645,0.133967,-0.066327,-0.042361,0.129025,-0.017785
9.120000,0.015227,0.125333,9.800926,0.017137,0.135563,0.008836,0.156516,0.211092,0.121006
9.160000,0.118146,0.108454,10.285469,0.108567,0.103733,0.451790,0.218806,0.130865,0.193108
9.200000,0.104869,0.052365,10.780461,0.089701,0.050539,0.945541,0.393630,-0.003720,0.225449
9.240000,0.074358,-0.034284,11.000990,0.061773,-0.015270,1.169027,0.411072,0.004603,0.243105
9.280000,0.118802,-0.012123,10.682501,0.121939,-0.026284,0.894117,0.289919,-0.098910,0.250500
9.320000,0.088247,-0.048567,10.067863,0.082261,-0.061503,0.271840,0.272384,-0.094158,0.218657
9.360000,0.089891,-0.032560,9.808086,0.094576,-0.042076,0.030939,0.103957,-0.158624,0.107704
9.400000,0.009893,-0.058401,9.873426,0.021290,-0.068130,0.023966,-0.015701,-0.147368,-0.010126
9.440000,-0.083750,-0.060825,9.839668,-0.081539,-0.053538,0.048072,-0.206982,-0.124047,-0.078588
9.480000,-0.056081,-0.039623,9.771878,-0.064260,-0.051214,-0.013991,-0.273101,-0.126690,-0.189268
9.520000,-0.115682,-0.088124,9.791009,-0.112962,-0.095703,-0.016906,-0.252219,-0.039458,-0.238580
9.560000,-0.082709,0.030468,9.857371,-0.097267,0.051390,0.045024,-0.367330,0.061142,-0.228116
9.600000,-0.123301,0.031279,9.818353,-0.124078,0.040933,-0.004972,-0.270476,0.103124,-0.230226
9.640000,-0.088916,0.087911,9.676668,-0.078214,0.095491,-0.130727,-0.188335,0.124798,-0.049495
9.680000,-0.004246,0.083397,9.688969,-0.001506,0.068619,-0.107444,-0.074300,0.220553,-0.039017
9.720000,0.043874,0.116739,9.906183,0.050271,0.126397,0.104098,0.122175,0.175651,0.053581
9.760000,0.022904,0.041607,10.130300,0.009729,0.047473,0.332371,0.201953,0.119301,0.177309
9.800000,0.127569,0.023569,10.650468,0.122517,0.036409,0.812596,0.308549,0.144183,0.251968
9.840000,0.093571,0.002732,10.911233,0.094189,0.007507,1.101360,0.358773,-0.041345,0.228492
9.880000,0.128135,-0.060581,10.701356,0.120687,-0.070925,0.878660,0.371080,-0.077769,0.185502
9.920000,0.031148,-0.055947,10.239632,0.038876,-0.041713,0.433817,0.249448,-0.138770,0.174452
9.960000,0.063489,-0.043678,9.799650,0.074844,-0.048397,0.026187,0.211856,-0.138417,0.109267
10.000000,0.007707,-0.076178,9.771167,0.020269,-0.067408,-0.071693,-0.050789,-0.190515,-0.022249
10.040000,-0.091390,0.015140,9.852527,-0.073109,-0.003696,0.030918,-0.156031,-0.185291,-0.101487
10.080000,-0.087059,-0.079610,9.960751,-0.076449,-0.080759,0.142995,-0.218042,-0.090255,-0.188224
10.120000,-0.109111,-0.078256,9.828287,-0.114757,-0.077415,0.060695,-0.345575,-0.034321,-0.285849
10.160000,-0.094086,-0.034518,9.737337,-0.101390,-0.028709,-0.069881,-0.340524,0.007184,-0.229197
10.200000,-0.155354,0.043213,9.747313,-0.146673,0.041064,-0.093535,-0.332651,0.093715,-0.192129
10.240000,-0.129415,0.084777,9.754302,-0.109327,0.099486,-0.081612,-0.252445,0.109101,-0.146078
10.280000,-0.054383,0.083940,9.806859,-0.050335,0.082966,0.001212,-0.095347,0.168023,-0.047485
10.320000,0.024461,0.058100,9.864184,0.019464,0.063968,0.029797,0.086850,0.175119,0.024158
10.360000,0.124114,0.105060,10.169099,0.115778,0.111361,0.327694,0.179711,0.110663,0.135634
10.400000,0.108923,0.059992,10.581996,0.106489,0.039395,0.775087,0.295728,0.046843,0.231266
10.440000,0.136935,-0.015156,10.879753,0.147000,-0.029195,1.043392,0.333887,0.015080,0.206159
10.480000,0.096835,0.023697,10.851220,0.089554,0.009095,1.015758,0.361222,-0.015292,0.210685
10.520000,0.080190,-0.022360,10.283812,0.076244,-0.030862,0.457036,0.227293,-0.095578,0.151840
10.560000,0.042268,-0.059843,9.854814,0.034872,-0.063923,0.026100,0.160383,-0.177848,0.165419
10.600000,-0.007321,-0.016518,9.798568,0.001587,-0.031195,0.006032,0.014413,-0.101817,0.007383
10.640000,-0.016225,-0.074948,9.867514,-0.021359,-0.078229,0.041816,-0.145032,-0.201133,-0.043056
10.680000,-0.084623,-0.043045,9.895481,-0.093307,-0.049228,0.087992,-0.203381,-0.113162,-0.175636
10.720000,-0.133601,-0.045785,9.827193,-0.120092,-0.059654,0.035277,-0.372922,-0.084224,-0.177455
10.760000,-0.108695,-0.010943,9.813873,-0.102539,-0.019105,-0.026540,-0.336115,0.040936,-0.212950
10.800000,-0.138991,0.024281,9.790290,-0.123780,0.019846,-0.017353,-0.300169,0.073228,-0.246743
10.840000,-0.110141,0.089089,9.740020,-0.102018,0.081133,-0.074670,-0.238709,0.128598,-0.160744
10.880000,-0.046746,0.057216,9.783818,-0.045710,0.056106,-0.029000,-0.042696,0.200790,-0.104377
10.920000,0.053817,0.081671,9.775354,0.068292,0.076592,-0.003515,0.055326,0.173892,0.048074
10.960000,0.097975,0.068467,10.063164,0.086852,0.062427,0.259077,0.157623,0.177667,0.158238
11.000000,0.165280,0.033098,10.518727,0.154013,0.045443,0.693254,0.304479,0.102512,0.258642
11.040000,0.076897,-0.013333,10.903269,0.078200,-0.005969,1.092981,0.330775,-0.040637,0.285650
11.080000,0.122717,-0.014909,10.904187,0.129285,-0.022188,1.101246,0.333677,0.028733,0.257946
11.120000,0.086349,-0.079465,10.353321,0.086787,-0.080783,0.536651,0.322403,-0.088412,0.214697
11.160000,0.066946,-0.069970,9.924692,0.052355,-0.069793,0.093210,0.199206,-0.163619,0.121218
11.200000,-0.024933,-0.077280,9.711580,-0.031180,-0.080215,-0.065732,0.078977,-0.137653,0.086044
11.240000,-0.013189,-0.094332,9.826594,0.004804,-0.074504,0.018687,-0.171380,-0.201541,-0.097177
11.280000,-0.148851,-0.045907,9.920384,-0.126313,-0.044212,0.109999,-0.212820,-0.164579,-0.192900
11.320000,-0.090301,0.017698,9.906272,-0.081242,0.019307,0.060883,-0.266187,-0.121122,-0.257770
11.360000,-0.132168,-0.050978,9.843841,-0.131737,-0.052778,0.009713,-0.380306,-0.012794,-0.217583
11.400000,-0.155932,0.026871,9.724031,-0.138908,0.018321,-0.058358,-0.317153,0.046422,-0.203555
11.440000,-0.115038,0.025878,9.754846,-0.112978,0.029530,-0.081950,-0.249493,0.119365,-0.162318
11.480000,-0.058030,0.097540,9.732093,-0.041266,0.084097,-0.074892,-0.099964,0.124098,-0.079712
11.520000,-0.004880,0.091403,9.767158,-0.004960,0.101137,-0.010653,0.004455,0.159193,-0.022931
11.560000,0.056117,0.042046,9.939169,0.053942,0.035109,0.156034,0.184029,0.174549,0.120238
11.600000,0.049932,0.055348,10.430352,0.032890,0.060539,0.593046,0.264300,0.155704,0.229623
11.640000,0.052175,0.059476,10.903503,0.053496,0.047798,1.084413,0.421553,0.050471,0.208048
11.680000,0.060681,0.003935,10.903070,0.064233,0.001727,1.112730,0.360912,-0.039741,0.210998
11.720000,0.139525,-0.064205,10.531584,0.126189,-0.052144,0.689925,0.369895,-0.075632,0.222093
11.760000,0.118051,-0.044571,9.987080,0.111520,-0.045603,0.162883,0.221379,-0.112912,0.164804
11.800000,0.015003,-0.082228,9.747554,0.014577,-0.086234,-0.057325,0.057597,-0.143129,0.071318
11.840000,-0.007632,-0.048543,9.824155,-0.004590,-0.050797,0.008175,-0.073837,-0.160071,-0.019753
11.880000,-0.044340,-0.050259,9.906364,-0.061349,-0.053548,0.113902,-0.194220,-0.166895,-0.144662
11.920000,-0.076678,-0.047317,9.944989,-0.069356,-0.045068,0.095006,-0.370002,-0.090345,-0.267258
11.960000,-0.098010,-0.051358,9.843817,-0.083237,-0.045767,0.057543,-0.315952,-0.010787,-0.233254
12.000000,-0.153130,0.008798,9.737049,-0.151213,0.025236,-0.047183,-0.324374,-0.018003,-0.202108
12.040000,-0.086898,0.026962,9.724012,-0.083734,0.021132,-0.089882,-0.241286,0.120706,-0.205136
12.080000,-0.011970,0.045274,9.820976,-0.024025,0.040197,-0.046640,-0.123059,0.215557,-0.107709
12.120000,0.025869,0.088653,9.724908,0.024312,0.069553,-0.056977,-0.039814,0.160790,-0.068442
12.160000,0.079122,0.070922,9.944962,0.069970,0.071337,0.118657,0.143004,0.111190,0.089444
12.200000,0.060889,0.021707,10.415083,0.086493,0.018931,0.603687,0.258740,0.103244,0.230175
12.240000,0.130111,0.023178,10.819318,0.133453,0.021668,1.001330,0.296076,0.038856,0.222415
12.280000,0.091799,-0.004494,10.960426,0.077041,-0.013158,1.127585,0.395911,0.019496,0.217607
12.320000,0.053939,-0.060795,10.511547,0.064728,-0.055651,0.715256,0.368334,-0.005716,0.279376
12.360000,0.116608,-0.069097,10.058477,0.119400,-0.070604,0.253630,0.207966,-0.136860,0.172915
12.400000,0.070886,-0.057875,9.727975,0.062495,-0.058148,-0.068238,0.105657,-0.199923,0.076454
12.440000,0.022917,-0.083129,9.890693,0.027964,-0.090565,0.052660,-0.055457,-0.213915,-0.035983
12.480000,-0.062356,-0.027341,9.892676,-0.070180,-0.049559,0.057231,-0.198877,-0.119819,-0.156828
12.520000,-0.135875,-0.042793,9.834742,-0.129833,-0.046103,0.047224,-0.303409,-0.076645,-0.217285
12.560000,-0.124384,0.003096,9.776256,-0.124010,0.017543,-0.041363,-0.380099,0.005874,-0.196830
12.600000,-0.051380,0.032525,9.861013,-0.058090,0.044247,0.030038,-0.325056,0.028913,-0.262743
12.640000,-0.130427,0.053606,9.729404,-0.119510,0.043054,-0.048791,-0.291340,0.160159,-0.155612
12.680000,-0.069829,0.033521,9.718242,-0.061688,0.050159,-0.119521,-0.143823,0.164041,-0.107203
12.720000,0.036635,0.097488,9.746312,0.027492,0.094323,-0.062385,-0.036968,0.158102,-0.008199
12.760000,0.034474,0.052395,9.867712,0.042352,0.059702,0.066781,0.083902,0.108153,0.033100
12.800000,0.071775,0.038280,10.306648,0.070511,0.011300,0.468713,0.221591,0.115794,0.183890
12.840000,0.142833,0.041253,10.781277,0.133094,0.053376,0.948661,0.335239,0.054682,0.228122
12.880000,0.106603,-0.025991,10.893818,0.105681,-0.019372,1.111191,0.341955,-0.034390,0.201586
12.920000,0.126261,-0.087441,10.627759,0.123532,-0.095255,0.803339,0.293093,-0.061171,0.228778
12.960000,0.022990,-0.064286,10.134579,0.007495,-0.061968,0.310965,0.283590,-0.155047,0.153734
13.000000,0.007548,-0.055195,9.777104,-0.015459,-0.048003,0.010713,0.069597,-0.199738,0.085202
13.040000,-0.017693,-0.106942,9.764943,-0.019054,-0.097287,-0.056280,0.006150,-0.206603,-0.050706
13.080000,-0.023341,-0.086625,9.828279,-0.019100,-0.080056,0.026522,-0.136483,-0.199210,-0.153636
13.120000,-0.092771,-0.041935,9.904026,-0.101104,-0.032873,0.071447,-0.251839,-0.124754,-0.197543
13.160000,-0.126275,-0.031719,9.833223,-0.118507,-0.031592,0.040329,-0.316008,-0.056728,-0.255491
13.200000,-0.097251,0.031126,9.835363,-0.110381,0.011875,0.022910,-0.364790,0.026382,-0.255696
13.240000,-0.116646,0.092858,9.724142,-0.111174,0.072233,-0.075151,-0.302644,0.113570,-0.242496
13.280000,-0.115528,0.108857,9.747347,-0.111295,0.088404,-0.049939,-0.123934,0.199108,-0.133014
13.320000,-0.006135,0.084722,9.656915,0.004125,0.086024,-0.109324,-0.014328,0.208593,-0.015217
13.360000,0.032237,0.034110,9.880808,0.040729,0.026951,0.049498,0.112807,0.126259,0.076474
13.400000,0.098577,0.080433,10.237591,0.086773,0.079164,0.404378,0.208331,0.165499,0.148299
13.440000,0.077253,0.015810,10.772364,0.073828,0.024016,0.960923,0.288602,0.113192,0.174209
13.480000,0.165118,0.000666,10.917504,0.165644,0.018708,1.100091,0.317078,0.031773,0.224127
13.520000,0.119737,-0.091639,10.673168,0.099234,-0.074018,0.877842,0.308592,-0.077701,0.211254
13.560000,0.129481,-0.026529,10.095313,0.128298,-0.028081,0.263816,0.243443,-0.082544,0.203052
13.600000,-0.019290,-0.113232,9.809382,-0.019114,-0.099596,-0.005549,0.136350,-0.194296,0.116108
13.640000,-0.028443,-0.074967,9.858941,-0.017315,-0.067012,0.047693,0.025427,-0.147869,-0.000082
13.680000,-0.014858,-0.040265,9.939255,-0.006767,-0.043955,0.099828,-0.086325,-0.130796,-0.119679
13.720000,-0.105120,-0.063364,9.860961,-0.095764,-0.040042,0.076984,-0.219139,-0.101486,-0.151510
13.760000,-0.195543,0.003462,9.804535,-0.188686,-0.011217,0.033375,-0.370784,-0.105245,-0.220761
13.800000,-0.152530,0.013203,9.903031,-0.147851,0.012674,0.084137,-0.367397,0.028623,-0.310294
13.840000,-0.097345,0.000798,9.726528,-0.094493,0.004562,-0.079297,-0.326160,0.117574,-0.166921
13.880000,-0.019246,0.098686,9.689821,-0.026240,0.105070,-0.097476,-0.166508,0.148387,-0.149267
13.920000,-0.032847,0.115982,9.759577,-0.032595,0.111253,-0.053863,-0.043358,0.173908,-0.021712
13.960000,0.076184,0.057056,9.802625,0.058303,0.066703,-0.014642,0.062618,0.164689,0.067118
