Timestamp,Accel_X,Accel_Y,Accel_Z,UserAccel_X,UserAccel_Y,UserAccel_Z,Gyro_X,Gyro_Y,Gyro_Z
0.000000,-0.001197,-0.023811,9.812176,0.001624,-0.016541,0.008115,-0.003993,0.052135,0.137328
0.040000,0.004671,-0.003615,9.820525,0.010989,-0.027454,-0.011293,-0.016960,0.013619,0.124910
0.080000,0.019888,0.027418,9.859506,0.021667,0.028080,0.043865,0.013766,0.016949,0.129722
0.120000,-0.010942,-0.044452,9.838778,-0.018520,-0.040375,0.041361,-0.011334,0.047019,0.090547
0.160000,-0.008647,0.025558,9.839099,-0.006373,0.025298,0.039378,0.003353,0.086767,0.154166
0.200000,-0.069658,-0.024424,9.845856,-0.064691,-0.004396,0.044252,0.014786,0.087267,0.105431
0.240000,-0.013982,-0.011282,9.970317,-0.011993,-0.003684,0.154899,0.052534,0.060330,0.119925
0.280000,-0.021685,0.021246,9.901104,-0.008966,0.011414,0.071031,0.034201,0.067744,0.132414
0.320000,-0.016843,0.008857,9.862020,-0.020813,0.015147,0.036234,0.038228,0.080959,0.094169
0.360000,-0.008620,-0.028999,9.873624,0.009247,-0.020710,0.056784,0.091935,0.034826,0.101381
0.400000,-0.000439,0.030214,9.860864,0.004003,0.017119,0.070839,0.065462,0.087471,0.114111
0.440000,-0.043359,0.014550,9.870606,-0.050953,0.001148,0.080525,0.070671,0.058117,0.165720
0.480000,0.013871,-0.028848,9.887924,0.010840,-0.034018,0.069925,0.061873,0.089463,0.112462
0.520000,-0.012154,-0.012385,9.850407,-0.018057,-0.007834,0.060589,0.062605,0.080727,0.136266
0.560000,0.016092,0.027573,9.812951,0.016743,0.029968,0.006334,0.035950,0.103695,0.125784
0.600000,-0.016563,0.028364,9.834827,-0.028260,0.036405,0.020264,0.104071,0.098672,0.106400
0.640000,0.012700,0.001606,9.760748,0.003453,0.011554,-0.032188,0.098546,0.023232,0.076468
0.680000,-0.001264,-0.047332,9.754723,-0.005725,-0.036888,-0.039913,0.090736,0.108647,0.114504
0.720000,0.016611,-0.001627,9.746212,0.007335,0.004554,-0.062376,0.096163,0.124136,0.060254
0.760000,0.008564,0.002846,9.738005,0.001059,0.013193,-0.079550,0.118061,0.122965,0.118998
0.800000,-0.014825,-0.005680,9.814402,-0.010430,0.009957,-0.011521,0.076509,0.112870,0.087605
0.840000,-0.058013,0.013823,9.815091,-0.044574,0.011629,-0.004015,0.099899,0.160072,0.027091
0.880000,-0.041065,0.003956,9.865225,-0.045269,0.001610,0.054120,0.092885,0.130457,0.069648
0.920000,-0.019624,0.008605,9.916907,-0.025085,-0.008403,0.118100,0.154770,0.137473,0.085777
0.960000,-0.001829,-0.027239,10.071423,-0.012734,-0.020556,0.277486,0.140392,0.156861,0.064082
1.000000,-0.038931,-0.048220,10.169550,-0.029567,-0.051181,0.367213,0.082167,0.144565,0.079136
1.040000,-0.009328,0.009849,10.418759,-0.000264,0.006722,0.602610,0.099085,0.118529,0.043746
1.080000,-0.019409,0.002627,10.497728,-0.024008,0.005165,0.682679,0.129647,0.086434,0.030440
1.120000,-0.042504,0.024449,10.486386,-0.041793,0.017006,0.707884,0.125566,0.143024,0.050853
1.160000,-0.043539,-0.019864,10.420978,-0.024681,-0.027616,0.622763,0.111033,0.182898,0.048552
1.200000,-0.007743,0.028101,10.274697,-0.011494,0.024827,0.446629,0.178701,0.165537,0.036515
1.240000,-0.026248,0.060415,10.095899,-0.007724,0.062971,0.284710,0.148118,0.206647,0.063521
1.280000,0.023694,0.012818,9.976013,0.033147,0.016393,0.187268,0.153199,0.204521,0.017402
1.320000,-0.014240,0.001839,9.991358,-0.027756,0.015516,0.146020,0.131467,0.249260,0.036044
1.360000,0.008883,0.019029,9.918193,-0.009366,0.027088,0.108627,0.161125,0.228106,0.026468
1.400000,-0.004855,0.065811,9.847684,0.007302,0.072031,0.031919,0.140209,0.267827,-0.010738
1.440000,-0.002463,-0.014311,9.858184,0.000831,-0.003071,0.042191,0.143052,0.291656,-0.010730
1.480000,-0.005432,0.032622,9.857930,-0.005858,0.028223,0.053444,0.161602,0.341585,0.011119
1.520000,-0.008693,0.014972,9.867061,-0.026505,0.003006,0.067974,0.117227,0.288454,0.045717
1.560000,0.000248,-0.000748,9.881077,0.005177,0.008333,0.039252,0.181932,0.348589,0.012881
1.600000,-0.007988,0.021720,9.860994,-0.003219,0.018886,0.035946,0.153584,0.411794,-0.038017
1.640000,0.001361,0.040670,9.871685,-0.014126,0.051012,0.049356,0.175260,0.461052,-0.070508
1.680000,0.010326,0.055606,9.887680,0.014074,0.058655,0.069036,0.127598,0.461154,0.001583
1.720000,0.019219,0.013381,9.815745,0.011997,0.020284,0.020794,0.129870,0.481091,-0.019762
1.760000,0.041262,0.000369,9.869400,0.056034,-0.005649,0.040237,0.124085,0.540649,0.000256
1.800000,0.056867,0.053339,9.858560,0.058580,0.060126,0.061207,0.151083,0.576327,-0.044879
1.840000,0.005137,-0.009204,9.789198,0.021733,-0.019321,-0.025052,0.145917,0.577593,-0.024911
1.880000,0.026561,-0.032098,9.777205,0.037115,-0.029641,-0.008204,0.133598,0.625420,-0.019593
1.920000,0.003256,-0.073032,9.792188,-0.005136,-0.066536,0.012801,0.120665,0.675394,-0.050007
1.960000,0.024515,-0.006422,9.769076,0.025014,0.006111,-0.045698,0.113450,0.719578,-0.054056
2.000000,0.038563,-0.008255,9.733631,0.041754,-0.010787,-0.064233,0.135425,0.714671,-0.049432
2.040000,0.037744,0.028891,9.756066,0.045232,0.019938,-0.024096,0.124478,0.718062,-0.043408
2.080000,-0.004046,-0.077082,9.740321,-0.001839,-0.079815,-0.077788,0.117258,0.733323,-0.058785
2.120000,0.035418,0.010380,9.799497,0.032407,-0.012009,-0.042304,0.158883,0.763092,-0.043161
2.160000,-0.032827,-0.034398,9.764475,-0.042656,-0.048696,-0.066368,0.123061,0.757532,-0.075923
2.200000,-0.073765,-0.033781,9.716013,-0.047513,-0.030706,-0.090127,0.146675,0.773355,-0.097188
2.240000,-0.018780,-0.093930,9.747293,-0.010462,-0.090750,-0.062840,0.106982,0.747544,-0.034904
2.280000,0.003363,-0.005063,9.761422,0.001772,-0.009760,-0.061894,0.118728,0.809368,-0.090240
2.320000,-0.039955,-0.030278,9.794555,-0.038967,-0.021898,-0.032277,0.108725,0.749468,-0.093096
2.360000,-0.058632,-0.024209,9.736632,-0.062666,-0.035871,-0.068215,0.071709,0.766895,-0.086491
2.400000,-0.122842,-0.006848,9.773209,-0.125517,-0.010464,-0.037304,0.129886,0.779263,-0.087144
2.440000,-0.131445,-0.033397,9.788902,-0.128396,-0.035962,-0.025607,0.094112,0.825905,-0.099391
2.480000,-0.084912,-0.013464,9.831414,-0.079643,-0.020333,0.013106,0.107085,0.765885,-0.095030
2.520000,-0.096861,0.011671,9.785332,-0.094406,-0.005557,-0.022671,0.072309,0.761997,-0.098349
2.560000,-0.101480,-0.026166,9.862723,-0.112967,-0.027875,0.054524,0.079106,0.769798,-0.096774
2.600000,-0.088003,0.051403,9.884236,-0.080682,0.052534,0.053539,0.059988,0.833510,-0.149976
2.640000,-0.074141,0.088116,9.843942,-0.073513,0.073028,0.015799,0.096843,0.734501,-0.067601
2.680000,-0.042132,0.046886,9.927211,-0.043965,0.037211,0.110050,0.073034,0.797477,-0.110387
2.720000,-0.037004,0.070560,10.003699,-0.052607,0.073770,0.167913,0.068723,0.914065,-0.097880
2.760000,-0.014282,0.067191,9.980890,-0.011279,0.067139,0.176687,0.083024,0.889680,-0.138931
2.800000,-0.016047,0.090658,10.100618,-0.025635,0.088704,0.266273,0.073375,0.882487,-0.122487
2.840000,0.001420,0.072821,10.160337,-0.010899,0.069203,0.342199,0.059863,0.950449,-0.128030
2.880000,0.036902,0.051046,10.298314,0.037539,0.064612,0.439249,0.010358,1.000502,-0.086523
2.920000,0.003837,0.096609,10.381105,0.005945,0.112034,0.588992,0.019054,1.072870,-0.128782
2.960000,0.116828,0.071434,10.568330,0.120119,0.080308,0.768670,0.007012,1.155607,-0.102865
3.000000,0.075139,0.116128,10.595545,0.077697,0.125776,0.779263,0.035719,1.181463,-0.131808
3.040000,0.103473,0.060519,10.523688,0.094930,0.066957,0.707730,0.018626,1.223662,-0.128434
3.080000,0.115832,0.037043,10.431025,0.113522,0.030696,0.591773,-0.018577,1.324413,-0.124683
3.120000,0.161957,0.068666,10.234107,0.159604,0.070355,0.434133,-0.000536,1.355799,-0.094295
3.160000,0.130297,0.041439,10.026390,0.141549,0.039475,0.202816,-0.032643,1.415561,-0.157777
3.200000,0.077352,0.012329,9.928142,0.087027,0.024572,0.100705,-0.009819,1.463782,-0.146109
3.240000,0.185143,0.013461,9.891556,0.163709,0.018078,0.070986,-0.047845,1.531900,-0.158366
3.280000,0.115667,-0.040413,9.736497,0.117446,-0.046285,-0.059088,-0.010118,1.607379,-0.140602
3.320000,0.114089,-0.045051,9.801661,0.121837,-0.051000,-0.029456,-0.019060,1.653350,-0.134327
3.360000,0.090635,-0.076162,9.743434,0.076324,-0.068916,-0.085006,0.005658,1.736722,-0.149439
3.400000,0.109645,-0.110453,9.757793,0.106827,-0.112069,-0.061201,-0.021374,1.737100,-0.130699
3.440000,0.065155,-0.077378,9.766243,0.059373,-0.099366,-0.046822,-0.052558,1.717991,-0.154991
3.480000,0.055917,-0.069834,9.757504,0.057297,-0.069658,-0.055888,-0.033436,1.790711,-0.133554
3.520000,0.021431,-0.111266,9.762885,0.024618,-0.104334,-0.045934,-0.083369,1.815643,-0.087502
3.560000,0.053603,-0.149462,9.719759,0.055299,-0.147725,-0.099853,-0.080195,1.813273,-0.101577
3.600000,0.017681,-0.152266,9.789113,0.031508,-0.153188,-0.021354,-0.059715,1.857908,-0.103862
3.640000,-0.042824,-0.070750,9.729677,-0.041944,-0.069238,-0.067595,-0.114869,1.787100,-0.125457
3.680000,-0.062600,-0.106400,9.774486,-0.065560,-0.106086,-0.019785,-0.077659,1.798708,-0.133745
3.720000,-0.080215,-0.124012,9.794449,-0.098720,-0.109577,-0.004271,-0.102409,1.743134,-0.123263
3.760000,-0.080503,-0.096334,9.831905,-0.081363,-0.086708,0.018573,-0.084935,1.703308,-0.098641
3.800000,-0.156928,-0.102072,9.839600,-0.133586,-0.100579,0.030004,-0.113333,1.639391,-0.077553
3.840000,-0.149332,-0.011352,9.822885,-0.148392,-0.009699,0.009655,-0.087965,1.611319,-0.073857
3.880000,-0.094193,-0.040836,9.825651,-0.121588,-0.035174,0.008138,-0.100580,1.544304,-0.076133
3.920000,-0.154443,0.027899,9.887101,-0.163106,0.029670,0.086511,-0.077315,1.518011,-0.100195
3.960000,-0.157561,0.018430,9.907175,-0.149452,0.017819,0.075190,-0.109374,1.459408,-0.081515
4.000000,-0.176280,0.081714,9.916550,-0.182191,0.072820,0.110566,-0.128893,1.395946,-0.084864
4.040000,-0.122105,0.061887,9.881646,-0.114685,0.062879,0.078147,-0.122288,1.402649,-0.078767
4.080000,-0.082767,0.099344,9.854772,-0.069229,0.095353,0.037536,-0.147877,1.352046,-0.030186
4.120000,-0.084989,0.101746,9.888118,-0.081505,0.107162,0.105666,-0.116319,1.299921,-0.102241
4.160000,-0.040803,0.122758,9.857614,-0.041718,0.117037,0.059472,-0.115894,1.291491,-0.067660
4.200000,-0.094532,0.122896,9.896617,-0.075811,0.119139,0.071901,-0.081352,1.269979,-0.034596
4.240000,-0.035103,0.118704,9.814730,-0.023611,0.110046,0.030792,-0.146009,1.242336,-0.083920
4.280000,-0.027171,0.172607,9.912859,-0.027274,0.165473,0.086096,-0.141551,1.265433,-0.063160
4.320000,0.012177,0.098793,9.828207,0.016259,0.092906,-0.004460,-0.150115,1.255179,-0.056468
4.360000,0.069829,0.109079,9.800366,0.065881,0.110063,-0.004092,-0.136540,1.260943,-0.045883
4.400000,0.059772,0.103773,9.807598,0.071918,0.101323,-0.006779,-0.135107,1.263890,-0.068799
4.440000,0.061442,0.109610,9.768465,0.054301,0.098975,-0.058321,-0.145537,1.320417,-0.020378
4.480000,0.061966,0.057035,9.773136,0.073804,0.063556,-0.029862,-0.124241,1.372335,-0.014311
4.520000,0.101954,0.059203,9.820015,0.085526,0.065487,-0.003002,-0.159572,1.372127,-0.012777
4.560000,0.124503,0.037074,9.727410,0.141660,0.035260,-0.072522,-0.128538,1.485014,-0.035623
4.600000,0.175086,-0.014883,9.760498,0.186012,-0.019036,-0.042338,-0.138284,1.476387,-0.011728
4.640000,0.173342,-0.006644,9.683706,0.169168,0.001597,-0.114304,-0.149848,1.517434,-0.026668
4.680000,0.100778,-0.045607,9.835530,0.084135,-0.044859,0.020390,-0.156220,1.532263,-0.010538
4.720000,0.162604,-0.079291,9.935655,0.159454,-0.078351,0.108285,-0.101462,1.581978,0.043983
4.760000,0.141683,-0.069757,10.041608,0.136055,-0.047605,0.234370,-0.166170,1.533854,0.007625
4.800000,0.059710,-0.054968,10.251965,0.059535,-0.052772,0.461033,-0.143466,1.501033,-0.013251
4.840000,0.063226,-0.064827,10.372679,0.073490,-0.063254,0.578920,-0.163785,1.558321,0.018879
4.880000,0.084488,-0.072510,10.502918,0.089389,-0.070907,0.686999,-0.112186,1.580221,-0.007017
4.920000,0.043299,-0.124928,10.532741,0.055418,-0.139087,0.695080,-0.129042,1.558912,0.000755
4.960000,-0.024761,-0.139578,10.388756,-0.011974,-0.127420,0.572850,-0.158992,1.542867,0.008588
5.000000,0.019286,-0.051889,10.266373,0.015269,-0.043642,0.462176,-0.133587,1.542019,0.025153
5.040000,-0.084592,-0.141962,10.199973,-0.073361,-0.115840,0.378481,-0.136868,1.484101,0.057353
5.080000,-0.040767,-0.073195,9.971030,-0.043962,-0.068385,0.164623,-0.150311,1.453191,0.054694
5.120000,-0.039425,-0.096410,9.928219,-0.026407,-0.092454,0.123894,-0.122547,1.362266,0.058030
5.160000,-0.065434,-0.068018,9.887166,-0.068398,-0.062918,0.091543,-0.127436,1.305673,0.029959
5.200000,-0.097405,-0.057730,9.969175,-0.092519,-0.068807,0.138048,-0.128204,1.316489,0.045396
5.240000,-0.051877,-0.017298,9.876033,-0.065943,-0.025904,0.104121,-0.130440,1.218601,0.065857
5.280000,-0.065522,-0.022097,9.886109,-0.068759,-0.022876,0.064141,-0.117857,1.138430,0.051948
5.320000,-0.049783,-0.027426,9.922635,-0.062141,-0.023720,0.119591,-0.118564,1.075531,0.062942
5.360000,-0.079269,-0.015052,9.859480,-0.071712,-0.025314,0.055635,-0.118447,1.012117,0.081221
5.400000,-0.061772,0.020135,9.938068,-0.062334,0.020333,0.102684,-0.128735,0.949160,0.069188
5.440000,-0.074065,-0.013301,9.822651,-0.064254,-0.005118,0.023363,-0.078139,0.875552,0.084332
5.480000,-0.071062,0.028830,9.885278,-0.066926,0.045993,0.085479,-0.128944,0.813904,0.115185
5.520000,-0.063137,0.104951,9.836150,-0.060516,0.109364,0.028106,-0.095131,0.794056,0.083279
5.560000,-0.063798,0.091512,9.811028,-0.056540,0.083966,-0.005180,-0.105671,0.735903,0.113551
5.600000,-0.080074,0.095453,9.806885,-0.067919,0.072688,0.003512,-0.059499,0.734869,0.104255
5.640000,-0.062258,0.055702,9.788686,-0.048123,0.055086,0.002294,-0.108032,0.675880,0.066678
5.680000,-0.041416,0.001625,9.760336,-0.018019,0.009279,-0.036679,-0.099796,0.641521,0.076781
5.720000,-0.002755,0.011494,9.809072,0.007809,0.023344,-0.020148,-0.099479,0.587544,0.084795
5.760000,0.055888,0.090943,9.743417,0.049613,0.085423,-0.067705,-0.068477,0.579019,0.086851
5.800000,0.007132,0.011430,9.773736,0.023117,0.029077,-0.043030,-0.097151,0.571349,0.104457
5.840000,0.044619,0.031077,9.748762,0.058300,0.025573,-0.057317,-0.073893,0.564435,0.120700
5.880000,0.085443,0.040370,9.721598,0.067534,0.032193,-0.078509,-0.101900,0.531804,0.135481
5.920000,0.033902,0.006762,9.742231,0.040267,0.002399,-0.092932,-0.048480,0.551599,0.118336
5.960000,0.067748,-0.011667,9.732234,0.064537,-0.009470,-0.074943,-0.057643,0.517534,0.104874
6.000000,0.051756,0.017754,9.743773,0.045333,0.012104,-0.059577,-0.071673,0.531499,0.073576
6.040000,0.091067,-0.014860,9.818681,0.084442,-0.016569,-0.007761,-0.014407,0.494799,0.117881
6.080000,0.050385,-0.027807,9.767007,0.065608,-0.020025,-0.032157,-0.056422,0.457545,0.118047
6.120000,0.014504,-0.009109,9.781724,0.016815,-0.027613,-0.019355,-0.008430,0.505297,0.122064
6.160000,0.030061,-0.004319,9.867840,0.046244,-0.000803,0.057686,-0.032452,0.511892,0.161215
6.200000,0.102511,-0.016752,9.805588,0.078048,-0.024509,-0.004416,0.019568,0.502351,0.144397
6.240000,0.010279,-0.051183,9.824416,0.026228,-0.026996,0.010522,0.008515,0.491446,0.135589
6.280000,0.024926,0.002391,9.874524,0.035404,-0.010373,0.033149,-0.020639,0.463574,0.100758
6.320000,0.020705,-0.015862,9.812401,0.031111,-0.030550,-0.002643,-0.012821,0.441832,0.109659
6.360000,-0.030121,-0.034332,9.803278,-0.015154,-0.034630,0.028949,0.023621,0.463745,0.117749
6.400000,0.030619,-0.010041,9.855482,0.017093,-0.015629,0.040587,0.012235,0.446807,0.103674
6.440000,-0.012272,-0.003954,9.898846,-0.036496,-0.009539,0.088278,0.020039,0.406633,0.128537
6.480000,-0.027404,-0.034459,9.889545,-0.022647,-0.028031,0.078893,0.054777,0.431353,0.124822
6.520000,0.002071,-0.014367,9.925400,0.015275,-0.019838,0.111711,0.020217,0.363149,0.094885
6.560000,-0.028851,-0.046516,9.991589,-0.006481,-0.038430,0.182019,0.042820,0.351109,0.139368
6.600000,-0.028358,-0.043199,10.057310,-0.025916,-0.037111,0.248099,0.065824,0.386218,0.116074
6.640000,-0.012320,0.018374,10.148751,-0.009156,0.007104,0.329555,0.068576,0.346046,0.077860
6.680000,-0.029475,0.012258,10.261871,-0.022962,0.002512,0.460003,0.054780,0.294108,0.109649
6.720000,-0.019250,-0.000862,10.461769,-0.021464,0.006202,0.665984,0.057680,0.288958,0.114357
6.760000,-0.000976,-0.002254,10.624302,-0.004928,0.005082,0.768945,0.034066,0.264621,0.126071
6.800000,-0.035214,-0.004281,10.530524,-0.038444,0.002175,0.731262,0.052992,0.171605,0.097578
6.840000,-0.020774,0.028363,10.518126,-0.017613,0.021036,0.706624,0.085640,0.197820,0.118432
6.880000,-0.035369,0.019205,10.366234,-0.024353,0.029205,0.578669,0.081544,0.200387,0.102998
6.920000,-0.047135,0.033939,10.230825,-0.053793,0.030372,0.419078,0.090694,0.175018,0.070178
6.960000,-0.034445,0.013854,10.050555,-0.034570,0.006385,0.254554,0.114732,0.173609,0.065245
7.000000,0.039213,0.043566,9.908479,0.030329,0.044448,0.105116,0.074802,0.180474,0.112919
7.040000,0.011313,0.026028,9.853634,0.003412,0.015927,0.027958,0.098268,0.130360,0.111163
7.080000,-0.050948,0.023032,9.779785,-0.036730,0.026075,-0.037295,0.111044,0.099489,0.090337
7.120000,-0.054108,0.014879,9.733770,-0.039765,0.017018,-0.084756,0.097294,0.122934,0.110294
7.160000,-0.009475,0.005771,9.699899,-0.001920,0.015543,-0.083533,0.143935,0.096834,0.097885
7.200000,0.031204,0.000306,9.759290,0.041767,-0.009866,-0.078264,0.137222,0.092517,0.086675
7.240000,0.007154,0.017372,9.714102,-0.000399,0.025037,-0.078019,0.128407,0.081685,0.050909
7.280000,0.041658,0.080983,9.704909,0.038145,0.077485,-0.128020,0.161846,0.138623,0.099786
7.320000,0.026124,-0.004952,9.750506,0.015132,-0.004239,-0.074817,0.099140,0.021079,0.071802
7.360000,0.022620,-0.004862,9.768583,0.018655,0.005665,-0.050077,0.131913,0.062709,0.049179
7.400000,-0.024196,-0.014569,9.750194,-0.026282,-0.008478,-0.046981,0.142133,0.068325,0.039260
7.440000,0.042511,0.003158,9.781106,0.030514,-0.010671,-0.031168,0.119038,0.045450,0.053407
7.480000,0.003127,0.041108,9.809547,-0.001570,0.039091,0.006611,0.145646,0.084484,0.010418
7.520000,0.028592,-0.027363,9.786096,0.027911,-0.017271,-0.024340,0.119580,0.079673,0.053330
7.560000,0.000161,-0.010033,9.781174,-0.014644,-0.013086,-0.025078,0.157376,0.055751,0.015700
7.600000,0.010553,-0.043021,9.807516,0.009402,-0.041560,0.028095,0.166345,0.047949,0.037563
7.640000,0.009926,0.013240,9.901515,0.012969,-0.021300,0.074688,0.152026,0.049788,0.015050
7.680000,-0.008899,-0.042557,9.922313,-0.000521,-0.045408,0.113530,0.110680,0.047882,0.015484
7.720000,0.019637,0.009093,9.897699,0.012607,0.012900,0.094971,0.129320,0.046458,0.000892
7.760000,0.007398,0.081228,9.834778,-0.004973,0.067028,0.033183,0.160632,0.041604,0.008037
7.800000,-0.015795,-0.030498,9.888248,-0.015289,-0.012088,0.072871,0.150205,0.050455,0.044262
7.840000,0.053479,-0.043507,9.883530,0.040400,-0.044451,0.086936,0.096105,0.060757,0.029379
7.880000,0.006200,0.039879,9.856939,0.025900,0.019935,0.080767,0.174806,0.008897,0.003968
7.920000,-0.020389,-0.021626,9.900888,-0.019834,-0.020464,0.084781,0.152406,0.011065,-0.008422
7.960000,0.012610,0.013175,9.849276,0.013011,0.030508,0.031490,0.132776,-0.008739,0.004186
