Timestamp,Accel_X,Accel_Y,Accel_Z,UserAccel_X,UserAccel_Y,UserAccel_Z,Gyro_X,Gyro_Y,Gyro_Z
0.000000,0.035206,0.126252,9.802157,0.031893,0.114121,-0.003232,-0.001329,0.166773,0.039135
0.040000,0.075952,0.093467,9.853956,0.079334,0.081362,0.025891,0.150723,0.194782,0.132837
0.080000,0.144720,0.076697,9.800953,0.129843,0.062942,-0.002008,0.294545,0.163005,0.193218
0.120000,0.119751,0.045050,9.823704,0.122897,0.035166,0.022003,0.453987,0.083403,0.237161
0.160000,0.117168,-0.005190,9.776554,0.125653,-0.000523,-0.026170,0.485863,0.016257,0.220079
0.200000,0.079281,-0.024475,9.807122,0.095963,-0.031981,-0.002412,0.412713,-0.083202,0.190271
0.240000,0.040208,-0.051603,9.832199,0.040410,-0.050753,0.018926,0.331844,-0.133253,0.142801
0.280000,0.010728,-0.108962,9.816701,0.013409,-0.109902,0.010918,0.205357,-0.183453,0.026885
0.320000,-0.038763,-0.082336,9.839816,-0.044921,-0.086051,0.023551,0.017060,-0.213687,-0.048643
0.360000,-0.077579,-0.099444,9.811448,-0.084567,-0.097665,-0.004321,-0.165287,-0.199360,-0.149605
0.400000,-0.099984,-0.118701,9.833604,-0.106138,-0.118691,0.004770,-0.293532,-0.142790,-0.180499
0.440000,-0.149936,-0.045654,9.772452,-0.142566,-0.051566,-0.029247,-0.391503,-0.097877,-0.219867
0.480000,-0.106268,-0.005283,9.814280,-0.096323,-0.012878,-0.006725,-0.423187,-0.018867,-0.239477
0.520000,-0.105436,0.043847,9.849118,-0.102048,0.037527,0.039287,-0.400082,0.054413,-0.206196
0.560000,-0.048541,0.092229,9.874587,-0.041262,0.071938,0.054584,-0.343613,0.116989,-0.131655
0.600000,-0.009180,0.104570,9.953615,-0.010252,0.087535,0.136044,-0.203678,0.153125,-0.058882
0.640000,0.054056,0.087902,10.004495,0.056456,0.087096,0.218386,-0.050785,0.173210,0.030065
0.680000,0.070149,0.111827,10.203301,0.064438,0.110720,0.387361,0.149293,0.196219,0.081715
0.720000,0.095410,0.072693,10.387520,0.099619,0.069242,0.592996,0.253481,0.150656,0.153994
0.760000,0.109200,0.038097,10.711887,0.124023,0.032897,0.893390,0.411753,0.076663,0.235603
0.800000,0.088537,0.017947,11.113829,0.083056,0.004986,1.298493,0.420782,0.017866,0.268744
0.840000,0.129341,-0.037197,11.516076,0.108759,-0.031729,1.707044,0.444609,-0.039213,0.229208
0.880000,0.090612,-0.064958,11.933220,0.085506,-0.060151,2.113890,0.384299,-0.106675,0.173620
0.920000,0.023708,-0.092224,12.301023,0.036174,-0.091376,2.483945,0.239404,-0.202389,0.063709
0.960000,-0.027246,-0.079636,12.553580,-0.015343,-0.103922,2.727769,0.073152,-0.185905,-0.019515
1.000000,-0.058061,-0.075978,12.613844,-0.070879,-0.086690,2.818129,-0.077339,-0.233168,-0.071335
1.040000,-0.082508,-0.083544,12.531565,-0.081410,-0.070878,2.710946,-0.252334,-0.177849,-0.185732
1.080000,-0.101805,-0.046660,12.268090,-0.101716,-0.047695,2.464609,-0.391063,-0.094117,-0.237248
1.120000,-0.116442,-0.039662,11.936718,-0.111842,-0.025023,2.125517,-0.459272,-0.062151,-0.267889
1.160000,-0.092353,0.011429,11.536018,-0.100291,0.007906,1.728452,-0.457219,0.054030,-0.199864
1.200000,-0.072027,0.048663,11.123512,-0.073709,0.050106,1.313769,-0.370965,0.109630,-0.198999
1.240000,-0.054276,0.089935,10.793312,-0.044634,0.079191,0.977175,-0.283722,0.200481,-0.087166
1.280000,0.034132,0.120728,10.607669,0.038154,0.109883,0.798992,-0.092885,0.226405,-0.037730
1.320000,0.027903,0.108501,10.516668,0.030223,0.094662,0.722094,0.050027,0.205385,0.046590
1.360000,0.087280,0.070980,10.589122,0.091083,0.067897,0.753346,0.235230,0.167172,0.170539
1.400000,0.124696,0.053465,10.740507,0.118757,0.047901,0.927948,0.345925,0.146749,0.215694
1.440000,0.124807,0.062323,11.037247,0.131788,0.052547,1.229017,0.420466,0.059572,0.271125
1.480000,0.127035,-0.020512,11.426740,0.130475,-0.026108,1.603768,0.447476,-0.008823,0.250014
1.520000,0.101988,-0.073532,11.796979,0.088848,-0.067499,1.989729,0.382165,-0.086709,0.214336
1.560000,0.042542,-0.089208,12.186707,0.028627,-0.082221,2.382351,0.291174,-0.149984,0.113353
1.600000,0.013342,-0.064799,12.507832,-0.001868,-0.069316,2.675661,0.117381,-0.213206,0.020310
1.640000,-0.072280,-0.110916,12.607063,-0.075627,-0.098129,2.799573,-0.079463,-0.180702,-0.075231
1.680000,-0.064134,-0.070718,12.588933,-0.070850,-0.084424,2.757731,-0.246708,-0.189772,-0.111810
1.720000,-0.123086,-0.095760,12.412487,-0.116704,-0.088673,2.574591,-0.371129,-0.101182,-0.227810
1.760000,-0.135348,-0.044141,12.044951,-0.129747,-0.054180,2.249169,-0.410589,-0.073978,-0.223352
1.800000,-0.128870,0.004874,11.624004,-0.116961,0.006243,1.831520,-0.447374,0.015150,-0.277021
1.840000,-0.076299,0.024466,11.277215,-0.080280,0.036470,1.467053,-0.427455,0.117468,-0.241816
1.880000,-0.039851,0.082163,10.935943,-0.045596,0.079878,1.111674,-0.311449,0.156492,-0.129053
1.920000,0.044902,0.075023,10.653891,0.040123,0.077336,0.851518,-0.135715,0.171275,-0.055816
1.960000,0.037022,0.105301,10.527818,0.039634,0.115740,0.723514,-0.010889,0.219598,0.013621
2.000000,0.085110,0.120559,10.519689,0.088135,0.111717,0.725864,0.192426,0.181519,0.182439
2.040000,0.120081,0.047211,10.678907,0.112449,0.046162,0.852691,0.338906,0.153457,0.235104
2.080000,0.112350,0.040471,10.937004,0.120403,0.040879,1.136040,0.388252,0.065941,0.267916
2.120000,0.112825,0.009360,11.280893,0.111161,-0.004607,1.481584,0.444468,0.005084,0.248730
2.160000,0.087139,-0.028097,11.721055,0.077276,-0.016339,1.899248,0.383163,-0.044702,0.224658
2.200000,0.041818,-0.054058,12.083302,0.037522,-0.066579,2.263983,0.337564,-0.139983,0.124647
2.240000,-0.008375,-0.071502,12.386825,-0.011672,-0.077393,2.574632,0.168541,-0.138208,0.058346
2.280000,-0.062118,-0.097762,12.554643,-0.066261,-0.101112,2.756469,-0.015420,-0.173570,-0.036625
2.320000,-0.075613,-0.109171,12.610727,-0.079446,-0.088869,2.804023,-0.157698,-0.174797,-0.104544
2.360000,-0.095591,-0.037275,12.441056,-0.094550,-0.041475,2.638117,-0.308343,-0.144813,-0.188705
2.400000,-0.141448,-0.013978,12.147888,-0.128051,-0.011433,2.340481,-0.401033,-0.096238,-0.257748
2.440000,-0.136190,-0.017793,11.775469,-0.121286,-0.030889,1.951181,-0.478110,0.002775,-0.263514
2.480000,-0.091896,0.037723,11.420598,-0.094095,0.038209,1.604317,-0.388790,0.065721,-0.182036
2.520000,-0.061447,0.057823,10.993849,-0.059593,0.069278,1.198370,-0.332555,0.138299,-0.168661
2.560000,-0.015276,0.068701,10.694870,-0.029835,0.073089,0.901848,-0.221638,0.202207,-0.085013
2.600000,0.058981,0.084503,10.549379,0.057794,0.088129,0.734859,-0.008718,0.190751,0.034532
2.640000,0.101370,0.101249,10.540627,0.084037,0.098261,0.723536,0.135286,0.202574,0.088092
2.680000,0.088944,0.089239,10.604866,0.095551,0.091658,0.802639,0.268899,0.114249,0.164397
2.720000,0.135511,0.064726,10.817280,0.123876,0.055655,1.018838,0.387858,0.121240,0.253732
2.760000,0.112646,0.011126,11.154706,0.108518,0.005005,1.364264,0.455810,-0.002830,0.260587
2.800000,0.101720,-0.047330,11.602546,0.090715,-0.042809,1.782946,0.443365,-0.055636,0.231747
2.840000,0.057768,-0.077080,11.993774,0.064371,-0.092524,2.177013,0.366775,-0.115685,0.210873
2.880000,0.023498,-0.061034,12.337844,0.029587,-0.063292,2.521825,0.232707,-0.165391,0.096345
2.920000,-0.011865,-0.115326,12.537297,-0.007776,-0.107339,2.719980,0.079740,-0.188943,0.008525
2.960000,-0.034113,-0.114594,12.583769,-0.046388,-0.109955,2.779228,-0.110405,-0.183498,-0.129416
3.000000,-0.102248,-0.064600,12.506734,-0.106505,-0.075837,2.695156,-0.270392,-0.120336,-0.190036
3.040000,-0.115716,-0.043595,12.246571,-0.126018,-0.054162,2.442697,-0.383889,-0.078954,-0.253773
3.080000,-0.123880,-0.010059,11.895399,-0.115393,-0.017340,2.090962,-0.421272,-0.020465,-0.244136
3.120000,-0.082652,0.023474,11.485895,-0.096183,0.031058,1.701638,-0.434964,0.005044,-0.220142
3.160000,-0.065674,0.043180,11.102892,-0.075951,0.049088,1.293818,-0.405352,0.102132,-0.183163
3.200000,-0.036280,0.063680,10.791311,-0.031549,0.067427,0.975387,-0.271605,0.199223,-0.094797
3.240000,0.030203,0.108517,10.582711,0.035915,0.095847,0.763276,-0.110091,0.153822,0.013509
3.280000,0.090535,0.099286,10.510681,0.090822,0.099290,0.713146,0.083891,0.186295,0.100566
3.320000,0.100176,0.073386,10.597691,0.095567,0.067881,0.768081,0.274464,0.154542,0.187475
3.360000,0.106193,0.028880,10.792520,0.107498,0.041180,0.966611,0.335298,0.157378,0.226547
3.400000,0.119209,-0.011556,11.037837,0.114027,0.007124,1.236882,0.404496,0.035180,0.235689
3.440000,0.077799,-0.003764,11.430365,0.087062,-0.003199,1.628067,0.412441,-0.029116,0.214379
3.480000,0.077398,-0.026447,11.878251,0.066647,-0.030678,2.058782,0.383311,-0.116418,0.166937
3.520000,0.045074,-0.059497,12.222273,0.035452,-0.060803,2.413025,0.257660,-0.191411,0.119756
3.560000,-0.010780,-0.107169,12.497816,-0.018000,-0.110343,2.693485,0.130764,-0.192605,0.024756
3.600000,-0.049869,-0.111099,12.615062,-0.041696,-0.109617,2.811767,-0.093641,-0.214354,-0.085458
3.640000,-0.084692,-0.104640,12.567115,-0.092553,-0.106382,2.759769,-0.213407,-0.194186,-0.160790
3.680000,-0.117093,-0.031327,12.355225,-0.108294,-0.034893,2.530096,-0.364435,-0.128546,-0.253525
3.720000,-0.110302,-0.038582,12.010623,-0.121493,-0.035765,2.205806,-0.410355,-0.072164,-0.246802
3.760000,-0.095773,-0.001189,11.624943,-0.085785,0.009056,1.816126,-0.447432,0.011122,-0.232767
3.800000,-0.096196,0.036834,11.271611,-0.094635,0.039191,1.449476,-0.413591,0.072763,-0.213683
3.840000,-0.033677,0.089055,10.911400,-0.040442,0.078757,1.083952,-0.318284,0.144999,-0.111449
3.880000,-0.016125,0.060356,10.635161,-0.007818,0.079246,0.828272,-0.118117,0.192790,-0.050145
3.920000,0.051173,0.085330,10.517082,0.066421,0.090470,0.714076,0.019748,0.190852,0.077479
3.960000,0.098940,0.076238,10.549734,0.103097,0.076259,0.735748,0.170929,0.196573,0.153459
4.000000,0.101849,0.019917,10.696930,0.105670,0.031436,0.878999,0.315899,0.128875,0.233037
4.040000,0.141020,0.050627,10.964230,0.144707,0.037888,1.164853,0.424460,0.090164,0.264411
4.080000,0.105212,0.005816,11.371673,0.104229,0.007301,1.531079,0.453219,-0.003703,0.272726
4.120000,0.060215,-0.023968,11.757243,0.060846,-0.026506,1.954293,0.397216,-0.098796,0.195025
4.160000,0.038715,-0.055246,12.146911,0.038320,-0.048935,2.325740,0.305802,-0.119460,0.150432
4.200000,-0.004417,-0.083617,12.413958,0.002639,-0.078732,2.612451,0.156478,-0.182192,0.038155
4.240000,-0.054875,-0.102021,12.589792,-0.051170,-0.101080,2.768642,0.018317,-0.170978,-0.050333
4.280000,-0.048297,-0.088022,12.597567,-0.051575,-0.084203,2.763562,-0.187255,-0.154044,-0.141761
4.320000,-0.105759,-0.083551,12.438485,-0.098081,-0.079120,2.633233,-0.334399,-0.153036,-0.224819
4.360000,-0.103370,-0.035019,12.126275,-0.094028,-0.027633,2.336718,-0.436160,-0.066017,-0.240612
4.400000,-0.091262,-0.001651,11.774527,-0.090693,-0.006404,1.957429,-0.456366,-0.017672,-0.221618
4.440000,-0.094131,-0.011118,11.347546,-0.111900,0.000765,1.536504,-0.405203,0.059873,-0.216580
4.480000,-0.037437,0.077006,10.959107,-0.054707,0.067676,1.168495,-0.330102,0.119747,-0.123373
4.520000,-0.064311,0.094535,10.721284,-0.045202,0.091578,0.890450,-0.191766,0.217786,-0.110602
4.560000,0.027601,0.080351,10.550509,0.031422,0.082247,0.745785,-0.002392,0.230074,0.070045
4.600000,0.095794,0.106289,10.474234,0.097206,0.101550,0.678488,0.162714,0.218637,0.104502
4.640000,0.094105,0.082302,10.628004,0.095389,0.092954,0.795864,0.300280,0.124966,0.208294
4.680000,0.109512,0.026052,10.836054,0.110197,0.027497,1.022915,0.440456,0.101935,0.270148
4.720000,0.113652,0.010423,11.207739,0.118785,0.019290,1.391348,0.417589,0.008938,0.219173
4.760000,0.101256,-0.017693,11.608112,0.103142,-0.017093,1.791912,0.453521,-0.072676,0.226463
4.800000,0.040445,-0.083197,12.044922,0.050031,-0.077998,2.209209,0.360344,-0.129778,0.184463
4.840000,-0.005745,-0.104038,12.340200,0.007459,-0.094678,2.527759,0.187621,-0.171335,0.075023
4.880000,-0.031501,-0.124284,12.547842,-0.022305,-0.115806,2.750821,0.072272,-0.196177,-0.024730
4.920000,-0.071638,-0.102614,12.574822,-0.071314,-0.104883,2.797039,-0.099558,-0.212917,-0.113872
4.960000,-0.104190,-0.085862,12.480851,-0.109069,-0.079637,2.677071,-0.280204,-0.163719,-0.184457
5.000000,-0.095756,-0.042515,12.233949,-0.114367,-0.032507,2.404711,-0.406205,-0.084991,-0.225622
5.040000,-0.120396,-0.022651,11.862676,-0.114770,-0.023363,2.060479,-0.457312,0.002986,-0.238116
5.080000,-0.084291,0.004036,11.455204,-0.091918,0.001143,1.652250,-0.409932,0.059925,-0.237701
5.120000,-0.032176,0.010650,11.083293,-0.031502,0.011950,1.255468,-0.353561,0.108532,-0.176492
5.160000,-0.026032,0.064387,10.772665,-0.022857,0.075058,0.955808,-0.257735,0.207251,-0.067892
5.200000,0.024820,0.087784,10.555291,0.019547,0.078898,0.751532,-0.046187,0.215424,0.037485
5.240000,0.089402,0.099769,10.503396,0.090715,0.100421,0.689140,0.115973,0.190993,0.100066
5.280000,0.084285,0.096933,10.602776,0.090597,0.085794,0.792143,0.231299,0.138472,0.174085
5.320000,0.137826,0.030099,10.797065,0.143811,0.031186,0.981075,0.381312,0.071255,0.241823
5.360000,0.106651,0.032230,11.105883,0.114620,0.024995,1.294573,0.441366,0.072664,0.270347
5.400000,0.092137,-0.035410,11.469344,0.100921,-0.021912,1.655992,0.444009,-0.017741,0.235273
5.440000,0.081926,-0.061226,11.860883,0.078457,-0.058086,2.065174,0.391511,-0.114232,0.182099
5.480000,0.044889,-0.093519,12.273207,0.043395,-0.089684,2.453401,0.267168,-0.155940,0.118928
5.520000,-0.014867,-0.069163,12.499038,-0.005797,-0.083047,2.682477,0.119136,-0.216233,0.017012
5.560000,-0.078794,-0.094602,12.608168,-0.066713,-0.089817,2.790574,-0.074528,-0.174357,-0.065709
5.600000,-0.095273,-0.092848,12.564441,-0.102724,-0.082728,2.746551,-0.239596,-0.188701,-0.166839
5.640000,-0.113027,-0.047040,12.341998,-0.111323,-0.042527,2.532198,-0.363179,-0.138633,-0.229579
5.680000,-0.117976,-0.030999,11.999885,-0.116729,-0.024754,2.193235,-0.492317,-0.024800,-0.254696
5.720000,-0.114682,0.014570,11.551529,-0.113180,0.015029,1.779316,-0.451174,0.009899,-0.259903
5.760000,-0.068228,0.049112,11.184160,-0.066993,0.057302,1.372357,-0.366361,0.097617,-0.177080
5.800000,-0.024582,0.066448,10.827202,-0.017120,0.074313,1.052722,-0.293083,0.179817,-0.123024
5.840000,0.025361,0.083698,10.636396,0.016287,0.077941,0.821879,-0.153170,0.196544,0.009649
5.880000,0.089487,0.107630,10.522830,0.081047,0.125932,0.704130,0.054540,0.223283,0.056416
5.920000,0.100065,0.108070,10.552045,0.099093,0.102571,0.733842,0.258705,0.155757,0.158722
5.960000,0.091404,0.052380,10.720388,0.112320,0.044894,0.912597,0.335024,0.127590,0.203604
6.000000,0.121245,0.023605,11.032127,0.121061,0.016154,1.211773,0.436915,0.078490,0.247819
6.040000,0.098722,-0.036574,11.350024,0.098521,-0.023100,1.523589,0.439357,-0.007378,0.220643
6.080000,0.067980,-0.078998,11.760192,0.063134,-0.066943,1.953098,0.378740,-0.085609,0.177496
6.120000,0.049675,-0.070438,12.118517,0.045902,-0.069163,2.309749,0.290665,-0.155923,0.123829
6.160000,-0.009961,-0.071410,12.454980,-0.019577,-0.071627,2.629607,0.142889,-0.193083,0.047749
6.200000,-0.058412,-0.106879,12.592871,-0.056692,-0.094105,2.780425,-0.025866,-0.208463,-0.027653
6.240000,-0.108624,-0.058993,12.642974,-0.089667,-0.067623,2.804397,-0.209561,-0.168508,-0.117183
6.280000,-0.092192,-0.061749,12.412169,-0.106608,-0.075034,2.605076,-0.353281,-0.159825,-0.236660
6.320000,-0.097448,-0.037741,12.085728,-0.113038,-0.032478,2.271370,-0.448366,-0.073679,-0.252500
6.360000,-0.104580,-0.015641,11.722822,-0.109118,-0.012643,1.923163,-0.451704,0.011009,-0.203773
6.400000,-0.125579,0.053253,11.288055,-0.112752,0.039074,1.474484,-0.415039,0.073428,-0.217056
6.440000,-0.041739,0.089091,10.954791,-0.048443,0.086674,1.150367,-0.299826,0.155273,-0.143842
6.480000,-0.012305,0.105027,10.690485,-0.011888,0.102726,0.899883,-0.158850,0.171237,-0.060743
6.520000,0.033396,0.116610,10.518754,0.043202,0.115291,0.731721,-0.025018,0.218297,0.056788
6.560000,0.104046,0.070925,10.539213,0.098287,0.087167,0.724599,0.149479,0.214037,0.154279
6.600000,0.142927,0.078248,10.646119,0.121798,0.086587,0.846087,0.293216,0.133806,0.207101
6.640000,0.124449,0.073958,10.892882,0.123246,0.063572,1.084192,0.381258,0.071118,0.230001
6.680000,0.120017,0.003685,11.244560,0.120149,0.013059,1.435391,0.438054,-0.021596,0.264527
6.720000,0.057645,-0.045526,11.611716,0.066347,-0.054133,1.806947,0.393735,-0.060920,0.218392
6.760000,0.051384,-0.057132,12.063033,0.054701,-0.062053,2.232735,0.300914,-0.089958,0.124552
6.800000,0.031594,-0.093145,12.348638,0.016655,-0.085907,2.541391,0.214255,-0.185440,0.046560
6.840000,-0.051163,-0.103801,12.570553,-0.048864,-0.109797,2.767573,0.032236,-0.200353,-0.005602
6.880000,-0.076509,-0.106608,12.589262,-0.072143,-0.110696,2.791154,-0.154080,-0.226417,-0.093287
6.920000,-0.116518,-0.073763,12.485861,-0.112402,-0.088969,2.665784,-0.278931,-0.167967,-0.195210
6.960000,-0.101876,-0.028615,12.194863,-0.104506,-0.029837,2.389881,-0.386236,-0.076096,-0.223357
7.000000,-0.106910,-0.007266,11.835243,-0.098180,-0.008458,2.010476,-0.421208,0.001193,-0.229583
7.040000,-0.097520,0.043790,11.442613,-0.101281,0.052762,1.626259,-0.441688,0.073770,-0.228226
7.080000,-0.042570,0.050236,11.041870,-0.036090,0.034831,1.237626,-0.351775,0.148510,-0.167322
7.120000,-0.011889,0.075440,10.742385,-0.017146,0.093149,0.927108,-0.232048,0.169002,-0.068871
7.160000,0.076223,0.124067,10.566596,0.062469,0.123105,0.750025,-0.072729,0.189620,0.031267
7.200000,0.061221,0.127250,10.500457,0.065376,0.124329,0.700397,0.130281,0.231981,0.090001
7.240000,0.106983,0.075755,10.605421,0.104244,0.072320,0.792461,0.275200,0.145458,0.180493
7.280000,0.128819,0.079603,10.816320,0.121873,0.076031,1.002001,0.362657,0.102761,0.249965
7.320000,0.110956,0.032039,11.122231,0.105394,0.032673,1.311155,0.443788,0.030796,0.280588
7.360000,0.075926,0.008710,11.527336,0.071645,-0.004284,1.709880,0.450168,-0.051664,0.223206
7.400000,0.062619,-0.044668,11.950141,0.052096,-0.053860,2.141707,0.365139,-0.118513,0.158414
7.440000,0.017984,-0.060688,12.287740,0.037448,-0.068600,2.458606,0.243595,-0.171736,0.082305
7.480000,-0.030795,-0.064880,12.507120,-0.029630,-0.084422,2.666407,0.130896,-0.190424,-0.010065
7.520000,-0.079451,-0.112749,12.589594,-0.071931,-0.107185,2.784278,-0.103625,-0.199399,-0.097905
7.560000,-0.073515,-0.125984,12.500718,-0.076777,-0.124282,2.713466,-0.258900,-0.145631,-0.201822
7.600000,-0.098996,-0.038469,12.321606,-0.110026,-0.039941,2.506815,-0.341221,-0.119509,-0.213673
7.640000,-0.105395,-0.016867,11.975647,-0.107569,-0.006020,2.159976,-0.437133,-0.046929,-0.292279
7.680000,-0.093045,0.037215,11.545506,-0.088714,0.027552,1.733411,-0.447400,0.037673,-0.266671
7.720000,-0.078537,0.042866,11.148063,-0.083537,0.046247,1.352898,-0.409082,0.073785,-0.195266
7.760000,-0.007148,0.075304,10.835751,-0.026268,0.074468,1.021042,-0.261698,0.147235,-0.093880
7.800000,0.018411,0.076608,10.601431,0.020028,0.073407,0.780923,-0.101708,0.207804,-0.028361
7.840000,0.057584,0.123473,10.506206,0.058699,0.123608,0.705847,0.082057,0.205387,0.089255
7.880000,0.082874,0.077844,10.584233,0.079034,0.085717,0.751929,0.248751,0.175438,0.166020
7.920000,0.122004,0.077177,10.705606,0.122736,0.074631,0.905311,0.360357,0.131961,0.189257
7.960000,0.102212,0.013584,11.034590,0.094269,0.022678,1.214904,0.419300,0.033063,0.273934
8.000000,0.081852,-0.045293,11.408753,0.090981,-0.045514,1.600107,0.423631,-0.016727,0.235365
8.040000,0.059136,-0.038293,11.754615,0.063381,-0.034943,1.961724,0.426530,-0.106604,0.194225
8.080000,0.009590,-0.053615,12.176632,0.028746,-0.058283,2.366246,0.276808,-0.145365,0.090417
8.120000,0.002598,-0.062820,12.469066,0.001827,-0.067066,2.660062,0.160453,-0.157464,0.025164
8.160000,-0.028121,-0.103478,12.648702,-0.030073,-0.101123,2.806378,-0.019407,-0.224248,-0.050382
8.200000,-0.070902,-0.091458,12.571573,-0.065167,-0.096448,2.748040,-0.205000,-0.147499,-0.158262
8.240000,-0.108455,-0.058197,12.402224,-0.101637,-0.063718,2.568794,-0.309041,-0.144844,-0.233859
8.280000,-0.110888,-0.043404,12.084970,-0.113184,-0.048610,2.256394,-0.425256,-0.056008,-0.248672
8.320000,-0.121490,-0.019860,11.691452,-0.143306,-0.008264,1.880334,-0.424087,-0.010093,-0.243038
8.360000,-0.074152,0.030701,11.296663,-0.063905,0.051258,1.493510,-0.413222,0.077274,-0.183914
8.400000,0.001629,0.069012,10.948276,-0.002162,0.069618,1.115973,-0.313915,0.123008,-0.109031
8.440000,0.008996,0.067465,10.671343,0.010559,0.085569,0.874037,-0.163881,0.211935,-0.018368
8.480000,0.031914,0.108467,10.527582,0.052086,0.106044,0.716504,0.049057,0.241208,0.054720
8.520000,0.104007,0.074788,10.517348,0.096741,0.086997,0.713856,0.184490,0.173110,0.176961
8.560000,0.123322,0.110224,10.690099,0.122222,0.106878,0.871032,0.318695,0.134537,0.168916
8.600000,0.116148,0.025056,10.971656,0.122023,0.034540,1.137127,0.383456,0.101965,0.258098
8.640000,0.104658,0.008289,11.300319,0.105499,0.024704,1.492246,0.436205,-0.013254,0.239160
8.680000,0.086382,-0.041926,11.651846,0.091341,-0.025754,1.853690,0.394014,-0.098593,0.174845
8.720000,0.038600,-0.052531,12.063924,0.027545,-0.054003,2.240766,0.286166,-0.123306,0.124661
8.760000,-0.031709,-0.102092,12.391369,-0.024966,-0.085495,2.599730,0.169519,-0.181555,0.061096
8.800000,-0.034711,-0.097274,12.547647,-0.021647,-0.101975,2.732884,0.057460,-0.173579,-0.034211
8.840000,-0.088484,-0.092398,12.591062,-0.088093,-0.093999,2.787759,-0.128785,-0.188099,-0.137197
8.880000,-0.103346,-0.072172,12.455719,-0.097731,-0.083518,2.638941,-0.279800,-0.183676,-0.195059
8.920000,-0.082391,-0.027568,12.200436,-0.096489,-0.038383,2.384504,-0.413087,-0.048793,-0.252674
8.960000,-0.096886,0.019288,11.788079,-0.095268,0.007572,1.989511,-0.461151,-0.021305,-0.234251
9.000000,-0.088339,-0.015079,11.424392,-0.098978,-0.005530,1.591210,-0.461073,0.074609,-0.211257
9.040000,-0.050592,0.041746,11.041422,-0.049611,0.045473,1.214042,-0.326955,0.130001,-0.177381
9.080000,-0.039386,0.076778,10.717260,-0.027787,0.070534,0.917442,-0.216681,0.151544,-0.066768
9.120000,0.052695,0.105150,10.552206,0.033833,0.109297,0.755176,-0.049624,0.162869,0.041575
9.160000,0.086420,0.106337,10.496194,0.091596,0.105355,0.690436,0.139485,0.216447,0.102483
9.200000,0.101952,0.061298,10.578850,0.105756,0.072178,0.784007,0.257253,0.168587,0.162984
9.240000,0.086901,0.075823,10.813822,0.076434,0.071850,1.016069,0.411280,0.135788,0.228460
9.280000,0.092040,0.007406,11.169727,0.081879,0.007241,1.346545,0.413809,0.029495,0.262350
9.320000,0.087936,-0.026036,11.540633,0.083104,-0.017186,1.729691,0.404122,-0.046789,0.215579
9.360000,0.084869,-0.037448,11.962716,0.080653,-0.047847,2.143123,0.380186,-0.127407,0.180417
9.400000,0.036230,-0.097391,12.358451,0.020271,-0.087997,2.522097,0.239421,-0.203124,0.053115
9.440000,-0.012816,-0.078585,12.528230,-0.026501,-0.083163,2.719061,0.074996,-0.182825,-0.029354
9.480000,-0.082147,-0.093948,12.618861,-0.090067,-0.103045,2.814785,-0.140062,-0.199206,-0.094510
9.520000,-0.097660,-0.082547,12.514103,-0.099523,-0.082217,2.703961,-0.243138,-0.163109,-0.175648
9.560000,-0.169690,-0.053374,12.302916,-0.152318,-0.052685,2.479955,-0.351175,-0.105586,-0.238012
9.600000,-0.108849,0.000915,11.903885,-0.112198,-0.007461,2.090534,-0.449631,-0.011529,-0.262863
9.640000,-0.084949,0.052035,11.507160,-0.081563,0.041056,1.718884,-0.450720,0.035998,-0.212668
9.680000,-0.063902,0.042841,11.125558,-0.078883,0.043533,1.323124,-0.341191,0.096654,-0.182233
9.720000,-0.008601,0.056289,10.797713,-0.007949,0.061568,1.004792,-0.271512,0.164784,-0.066318
9.760000,0.009528,0.098175,10.564863,0.010943,0.107521,0.767103,-0.140056,0.233252,-0.004682
9.800000,0.064692,0.061432,10.487751,0.066719,0.067067,0.695698,0.085131,0.203374,0.090300
9.840000,0.101014,0.098298,10.593529,0.095774,0.085781,0.776919,0.220240,0.172770,0.160907
9.880000,0.116006,0.053075,10.739664,0.118179,0.067733,0.919341,0.377435,0.112221,0.249437
9.920000,0.147435,-0.007705,11.043447,0.141505,-0.001923,1.234894,0.422368,0.042948,0.222757
9.960000,0.127942,-0.037982,11.422341,0.116252,-0.026459,1.624631,0.440053,-0.048600,0.251296
10.000000,0.064064,-0.062691,11.863482,0.062189,-0.054696,2.051651,0.380876,-0.110845,0.180138
10.040000,-0.003534,-0.080143,12.221313,-0.010413,-0.080712,2.410719,0.261912,-0.154583,0.087653
10.080000,0.004882,-0.097220,12.486385,-0.001365,-0.096318,2.687422,0.123670,-0.216878,0.023298
10.120000,-0.040623,-0.097120,12.588746,-0.047008,-0.093473,2.788473,-0.020504,-0.202662,-0.093487
10.160000,-0.102631,-0.077360,12.566110,-0.091088,-0.077702,2.757235,-0.234284,-0.199882,-0.133328
10.200000,-0.128757,-0.086096,12.347170,-0.123323,-0.087519,2.540102,-0.339285,-0.144877,-0.231881
10.240000,-0.091631,-0.024404,12.022101,-0.095492,-0.011439,2.219087,-0.441159,-0.069127,-0.271026
10.280000,-0.128908,0.004408,11.640883,-0.133270,0.003594,1.830696,-0.451652,0.015802,-0.265106
10.320000,-0.087880,0.031943,11.230588,-0.089607,0.038527,1.419309,-0.385815,0.087470,-0.165430
10.360000,-0.078778,0.086216,10.923523,-0.059797,0.091779,1.105609,-0.296802,0.177776,-0.119967
10.400000,0.006008,0.081316,10.662497,0.013352,0.086319,0.838418,-0.116299,0.213900,-0.043066
10.440000,0.029784,0.076105,10.514084,0.045226,0.086683,0.708092,-0.007775,0.195418,0.075820
10.480000,0.134663,0.047150,10.527648,0.120674,0.062304,0.712324,0.153952,0.177488,0.147319
10.520000,0.100809,0.085649,10.710094,0.113000,0.087014,0.891392,0.322905,0.121082,0.212327
10.560000,0.117670,0.012209,10.939273,0.116342,0.008847,1.149634,0.424621,0.103983,0.266454
10.600000,0.125008,-0.026192,11.303398,0.118115,-0.021866,1.493104,0.469941,0.019313,0.258853
10.640000,0.065220,-0.082823,11.687882,0.072077,-0.071466,1.881491,0.399162,-0.098798,0.173228
10.680000,0.018080,-0.074643,12.112473,0.028153,-0.077161,2.299060,0.314405,-0.144135,0.137978
10.720000,0.006249,-0.110757,12.428614,0.007275,-0.120388,2.594344,0.152811,-0.157812,0.065822
10.760000,-0.070616,-0.083520,12.594948,-0.053138,-0.082406,2.787897,0.021958,-0.207590,-0.041046
10.800000,-0.070285,-0.089598,12.604582,-0.069497,-0.103307,2.785080,-0.147698,-0.195012,-0.133163
10.840000,-0.110331,-0.092650,12.471685,-0.105107,-0.089843,2.649568,-0.306143,-0.124682,-0.246900
10.880000,-0.115042,-0.033512,12.149388,-0.118222,-0.035407,2.332426,-0.412717,-0.093810,-0.222033
10.920000,-0.127342,-0.021182,11.793141,-0.111183,-0.019936,1.976062,-0.451366,0.036134,-0.260425
10.960000,-0.084079,0.038296,11.357185,-0.089288,0.032175,1.560528,-0.444242,0.075388,-0.212945
11.000000,-0.036813,0.084101,10.970698,-0.044756,0.080560,1.161922,-0.366860,0.125102,-0.131636
11.040000,-0.019167,0.085115,10.707198,-0.012242,0.077876,0.896537,-0.180911,0.124491,-0.040737
11.080000,0.012895,0.095357,10.568807,0.009858,0.094205,0.760493,-0.021920,0.215935,0.017678
11.120000,0.079751,0.091105,10.513196,0.080144,0.083864,0.711396,0.146761,0.163047,0.132729
11.160000,0.112985,0.078878,10.624247,0.100237,0.071558,0.806166,0.276924,0.159898,0.187976
11.200000,0.105071,0.090529,10.858392,0.098946,0.092203,1.048541,0.375213,0.099773,0.238804
11.240000,0.125649,-0.025908,11.192764,0.126220,-0.022361,1.398784,0.462591,0.030331,0.250585
11.280000,0.073191,-0.030216,11.584442,0.086920,-0.014803,1.781553,0.435910,-0.087529,0.242974
11.320000,0.020236,-0.052552,11.964659,0.030973,-0.061566,2.171779,0.345593,-0.138403,0.151615
11.360000,0.008455,-0.095491,12.281716,0.012175,-0.097670,2.489100,0.243229,-0.163769,0.109240
11.400000,-0.049318,-0.091241,12.580137,-0.042630,-0.083951,2.761663,0.088537,-0.186296,-0.011050
11.440000,-0.104363,-0.073470,12.601648,-0.099069,-0.077883,2.785956,-0.084174,-0.163031,-0.157316
11.480000,-0.089983,-0.079525,12.538210,-0.099113,-0.093391,2.708547,-0.280917,-0.174086,-0.187553
11.520000,-0.133053,-0.048047,12.207044,-0.134578,-0.052756,2.411784,-0.375747,-0.130051,-0.269624
11.560000,-0.097470,-0.018824,11.881881,-0.105640,-0.024577,2.065427,-0.427149,-0.062737,-0.242480
11.600000,-0.110214,0.038380,11.473351,-0.110399,0.029614,1.657169,-0.467249,0.048109,-0.226718
11.640000,-0.049566,0.064040,11.116391,-0.048582,0.060454,1.299454,-0.316642,0.137299,-0.170622
11.680000,-0.019335,0.092892,10.785136,-0.013882,0.083958,0.966710,-0.254953,0.158466,-0.045319
11.720000,0.017801,0.100213,10.598833,0.027312,0.104784,0.781947,-0.066004,0.184762,-0.003510
11.760000,0.057746,0.104229,10.538790,0.056525,0.105668,0.727994,0.103266,0.212672,0.106549
11.800000,0.124945,0.093434,10.570469,0.113660,0.105610,0.769390,0.272463,0.167652,0.240217
11.840000,0.124689,0.040913,10.773085,0.125185,0.043470,0.950806,0.368092,0.107596,0.253129
11.880000,0.118496,0.018754,11.046630,0.112486,0.020244,1.266548,0.420761,0.032552,0.256383
11.920000,0.101748,0.016132,11.435726,0.109625,0.019660,1.637567,0.443521,-0.032097,0.243608
11.960000,0.051132,-0.064677,11.880470,0.053723,-0.062404,2.069202,0.385540,-0.111700,0.178647
12.000000,0.007814,-0.076059,12.229217,0.007964,-0.062400,2.431541,0.241770,-0.151335,0.121349
12.040000,-0.018366,-0.112207,12.502106,-0.020202,-0.111714,2.688910,0.133663,-0.209713,-0.012120
12.080000,-0.061188,-0.079955,12.581608,-0.060878,-0.088056,2.782845,-0.106268,-0.193052,-0.079900
12.120000,-0.089770,-0.081793,12.536651,-0.089617,-0.088967,2.709806,-0.215144,-0.188651,-0.179976
12.160000,-0.116838,-0.055665,12.325071,-0.115064,-0.054941,2.521648,-0.333915,-0.147570,-0.214024
12.200000,-0.096362,-0.025339,11.986561,-0.100412,-0.031229,2.186221,-0.444486,-0.038383,-0.221943
12.240000,-0.120639,0.029034,11.584338,-0.123905,0.030776,1.778968,-0.480845,0.020066,-0.263488
12.280000,-0.069337,0.052187,11.199015,-0.066212,0.047281,1.384394,-0.398492,0.082308,-0.189892
12.320000,-0.037204,0.078291,10.856359,-0.030580,0.074845,1.054270,-0.289200,0.131941,-0.107350
12.360000,0.026041,0.101907,10.628883,0.032133,0.102674,0.833571,-0.142579,0.182695,-0.036739
12.400000,0.071312,0.074543,10.482982,0.057689,0.089055,0.677809,0.012891,0.223134,0.074543
12.440000,0.099050,0.036875,10.521704,0.096398,0.054138,0.725660,0.261511,0.183139,0.171217
12.480000,0.147843,0.047604,10.711572,0.140467,0.043160,0.904857,0.336544,0.152389,0.223331
12.520000,0.138254,0.013848,10.942324,0.131658,0.021750,1.135264,0.413230,0.077596,0.239132
12.560000,0.117713,0.026158,11.330466,0.116948,0.020379,1.529155,0.437768,0.013556,0.262909
12.600000,0.077018,0.007621,11.752702,0.074259,-0.008339,1.935377,0.417587,-0.081539,0.233784
12.640000,0.046084,-0.087401,12.141755,0.042736,-0.093609,2.319739,0.306651,-0.130793,0.134170
12.680000,-0.041596,-0.092876,12.433208,-0.029557,-0.091105,2.645483,0.130706,-0.221216,0.062573
12.720000,-0.058702,-0.102313,12.612924,-0.062149,-0.110133,2.781175,-0.021573,-0.193366,-0.048247
12.760000,-0.082650,-0.075205,12.578283,-0.077251,-0.087859,2.767495,-0.172255,-0.223377,-0.167695
12.800000,-0.144225,-0.089456,12.414080,-0.138352,-0.089187,2.600951,-0.331455,-0.121634,-0.192036
12.840000,-0.116292,-0.022803,12.096780,-0.118600,-0.032537,2.303414,-0.400437,-0.022015,-0.221296
12.880000,-0.088167,-0.010279,11.688444,-0.110455,-0.012362,1.903551,-0.443731,-0.005748,-0.218735
12.920000,-0.092873,0.023202,11.323172,-0.079374,0.019360,1.491369,-0.398777,0.103823,-0.210202
12.960000,-0.088931,0.051047,10.954552,-0.072644,0.059550,1.141732,-0.308876,0.156432,-0.086988
13.000000,-0.031903,0.059202,10.702072,-0.032728,0.061148,0.877587,-0.174224,0.178300,-0.040534
13.040000,0.043668,0.103813,10.571774,0.059644,0.110106,0.754050,0.016007,0.190478,0.042754
13.080000,0.082475,0.078682,10.497894,0.083620,0.081042,0.701694,0.126679,0.198679,0.107477
13.120000,0.098359,0.091045,10.629135,0.115049,0.096517,0.820593,0.270813,0.151410,0.184942
13.160000,0.147708,0.061940,10.862849,0.144110,0.055945,1.052100,0.388312,0.090015,0.230458
13.200000,0.115380,0.016341,11.244327,0.115851,0.024877,1.434335,0.441309,0.010002,0.222955
13.240000,0.053135,-0.043451,11.625384,0.060553,-0.037713,1.816876,0.421911,-0.070299,0.252201
13.280000,0.058626,-0.042731,12.038270,0.048903,-0.044989,2.219588,0.304716,-0.148175,0.169942
13.320000,0.023089,-0.071672,12.345719,0.021569,-0.068851,2.546309,0.233036,-0.208345,0.026805
13.360000,-0.037713,-0.110330,12.535794,-0.042742,-0.105361,2.738045,0.040727,-0.201099,-0.025410
13.400000,-0.090615,-0.084933,12.604530,-0.081225,-0.094556,2.800397,-0.127066,-0.184961,-0.111995
13.440000,-0.111794,-0.058190,12.474186,-0.114778,-0.055796,2.660923,-0.305914,-0.184116,-0.191043
13.480000,-0.106427,-0.034603,12.216215,-0.097298,-0.045903,2.414040,-0.399541,-0.111971,-0.182526
13.520000,-0.077725,-0.030906,11.864409,-0.096726,-0.022619,2.057394,-0.455872,-0.056175,-0.262201
13.560000,-0.114257,0.019521,11.494427,-0.121659,0.042653,1.673981,-0.429976,0.067766,-0.189555
13.600000,-0.029754,0.079429,11.060220,-0.031221,0.078949,1.242796,-0.337748,0.142251,-0.166817
13.640000,-0.019165,0.073679,10.775452,-0.027901,0.072732,0.971637,-0.229359,0.161084,-0.036786
13.680000,0.061284,0.117868,10.551771,0.060010,0.105770,0.775053,-0.084320,0.195488,-0.047216
13.720000,0.050003,0.089934,10.479695,0.051431,0.097836,0.684684,0.110298,0.200922,0.110181
13.760000,0.120000,0.100081,10.592131,0.118774,0.098697,0.783301,0.263317,0.157786,0.224181
13.800000,0.095500,0.034008,10.823326,0.109864,0.042651,1.007337,0.361246,0.117977,0.245919
13.840000,0.111236,0.041180,11.091252,0.114775,0.038121,1.292731,0.441655,0.071642,0.226915
13.880000,0.113735,0.001703,11.509865,0.111934,-0.006102,1.694388,0.404542,-0.020680,0.194564
13.920000,0.048819,-0.059224,11.892990,0.054686,-0.061092,2.088443,0.373189,-0.095209,0.160205
13.960000,0.044698,-0.097074,12.269194,0.027959,-0.090860,2.454127,0.192682,-0.128854,0.072106
14.000000,-0.021008,-0.112909,12.484226,-0.018117,-0.115318,2.689821,0.083787,-0.221007,-0.024823
14.040000,-0.045467,-0.065079,12.609118,-0.047485,-0.076713,2.802103,-0.064083,-0.189965,-0.057296
14.080000,-0.061989,-0.091975,12.544479,-0.077892,-0.099027,2.737185,-0.251722,-0.202349,-0.172416
14.120000,-0.082452,-0.065730,12.308724,-0.088813,-0.061070,2.493733,-0.362528,-0.082003,-0.246239
14.160000,-0.096699,-0.004935,11.946902,-0.113885,0.005408,2.145747,-0.433789,-0.032602,-0.272578
14.200000,-0.095096,0.027254,11.569394,-0.096384,0.026996,1.757320,-0.450866,0.027708,-0.262806
14.240000,-0.092175,0.062423,11.153484,-0.080079,0.055739,1.357957,-0.413416,0.092349,-0.174804
14.280000,-0.061451,0.085618,10.840036,-0.041593,0.083569,1.035357,-0.299315,0.147478,-0.103763
14.320000,-0.014027,0.087431,10.576411,-0.004033,0.093715,0.795441,-0.136650,0.187317,-0.033093
14.360000,0.057671,0.071856,10.520872,0.055949,0.078734,0.719244,0.059739,0.167096,0.112022
14.400000,0.104034,0.102183,10.542368,0.096543,0.096688,0.745777,0.235547,0.165257,0.143441
14.440000,0.123526,0.045491,10.705344,0.115538,0.046299,0.889938,0.328067,0.115751,0.208545
14.480000,0.117296,0.052311,11.019622,0.127969,0.062078,1.218554,0.415919,0.041490,0.253099
14.520000,0.080205,-0.039280,11.367313,0.085652,-0.033012,1.553380,0.439679,-0.028337,0.218139
14.560000,0.106652,-0.045443,11.778247,0.103062,-0.049613,1.964883,0.427771,-0.096461,0.204073
14.600000,0.023663,-0.071631,12.171266,0.041453,-0.074875,2.365723,0.280527,-0.146748,0.093941
14.640000,0.000325,-0.107393,12.439020,0.007613,-0.103525,2.626580,0.163842,-0.173135,0.014638
14.680000,-0.046204,-0.095052,12.654738,-0.047949,-0.098972,2.819045,-0.035156,-0.207584,-0.032082
14.720000,-0.101521,-0.082083,12.539420,-0.102826,-0.079470,2.734508,-0.200827,-0.220157,-0.146794
14.760000,-0.110571,-0.054686,12.337883,-0.117962,-0.045107,2.542549,-0.343324,-0.139412,-0.205966
14.800000,-0.168648,-0.024940,12.077609,-0.169358,-0.032145,2.274959,-0.426363,-0.085495,-0.257567
14.840000,-0.108578,0.001031,11.673750,-0.105902,0.003307,1.860542,-0.472561,0.005638,-0.226754
14.880000,-0.090725,0.042723,11.297711,-0.083371,0.046332,1.481952,-0.415290,0.051133,-0.206693
14.920000,-0.022953,0.087892,10.921667,-0.025281,0.073003,1.113487,-0.333525,0.126865,-0.155764
14.960000,-0.027006,0.091645,10.667967,-0.024584,0.081913,0.859036,-0.171434,0.168015,-0.015488
15.000000,0.051580,0.103230,10.534829,0.045551,0.100611,0.726566,-0.039044,0.206000,0.055938
15.040000,0.069254,0.100946,10.497975,0.080269,0.112044,0.717732,0.154854,0.168890,0.160576
15.080000,0.105799,0.080543,10.658575,0.091577,0.073886,0.842342,0.306356,0.126738,0.201941
15.120000,0.092166,0.040759,10.903652,0.097965,0.040867,1.091985,0.401034,0.073576,0.226867
15.160000,0.090865,-0.003003,11.259263,0.094217,0.001462,1.444089,0.411372,0.010828,0.255677
15.200000,0.107708,-0.040356,11.658014,0.102065,-0.025604,1.836456,0.423813,-0.085734,0.222171
15.240000,0.069820,-0.046290,12.075675,0.064736,-0.060689,2.257477,0.299991,-0.166466,0.157374
15.280000,-0.012088,-0.093575,12.369928,-0.016319,-0.082933,2.546980,0.232970,-0.200723,0.074251
15.320000,-0.047628,-0.092839,12.573673,-0.042673,-0.104227,2.763482,0.051900,-0.201251,-0.049280
15.360000,-0.090007,-0.128716,12.601075,-0.072630,-0.129718,2.797393,-0.108780,-0.185009,-0.086935
15.400000,-0.104223,-0.093088,12.445507,-0.102710,-0.084663,2.628546,-0.295389,-0.123553,-0.183733
15.440000,-0.136904,-0.040973,12.168259,-0.142455,-0.045746,2.376717,-0.440350,-0.116771,-0.222971
15.480000,-0.119818,-0.028844,11.832025,-0.123230,-0.022191,2.007574,-0.412824,-0.034388,-0.285947
15.520000,-0.105997,0.032994,11.372020,-0.113517,0.039970,1.566022,-0.426930,0.074264,-0.251322
15.560000,-0.044083,0.048704,10.987031,-0.041020,0.049903,1.172378,-0.313508,0.108973,-0.179371
15.600000,0.020204,0.051578,10.609467,0.026633,0.054508,0.807640,-0.192482,0.181311,-0.107713
15.640000,0.022998,0.104511,10.341222,0.032727,0.112131,0.530938,-0.045985,0.211734,0.014759
15.680000,0.046675,0.093729,10.157174,0.042153,0.093214,0.337328,0.098236,0.188153,0.120996
15.720000,0.118285,0.083761,9.982689,0.116575,0.079791,0.184674,0.255259,0.171211,0.193930
15.760000,0.141811,0.032216,9.904014,0.142309,0.024155,0.109903,0.382783,0.133606,0.250877
15.800000,0.137672,0.002180,9.836180,0.138348,0.009458,0.028344,0.446030,0.042492,0.300476
15.840000,0.096478,-0.027832,9.824425,0.098810,-0.025605,0.026191,0.434165,-0.034955,0.201734
15.880000,0.066996,-0.067747,9.811313,0.070328,-0.057124,-0.015498,0.370585,-0.090134,0.152726
15.920000,0.025950,-0.060871,9.805435,0.020695,-0.070775,-0.001558,0.268262,-0.143953,0.110180
15.960000,-0.022132,-0.098099,9.800264,-0.015856,-0.107850,-0.008395,0.115357,-0.166774,-0.017821
