Timestamp,Accel_X,Accel_Y,Accel_Z,UserAccel_X,UserAccel_Y,UserAccel_Z,Gyro_X,Gyro_Y,Gyro_Z
0.000000,0.026214,0.062803,9.840231,0.025881,0.052210,0.035095,-0.019021,0.163160,0.019348
0.040000,0.076229,0.115944,9.997098,0.082743,0.107049,0.153938,0.117458,0.134450,0.087131
0.080000,0.105467,0.048760,10.209560,0.096689,0.055013,0.406108,0.269561,0.121023,0.182190
0.120000,0.142800,0.036223,10.697125,0.138955,0.029144,0.899614,0.321682,0.117204,0.213373
0.160000,0.073985,-0.044215,10.820594,0.100498,-0.040534,1.018633,0.394753,-0.051573,0.213181
0.200000,0.085775,-0.032291,10.556835,0.084683,-0.049271,0.725410,0.284171,-0.042794,0.241224
0.240000,0.100266,-0.030204,10.030320,0.092712,-0.042333,0.216564,0.275079,-0.081184,0.126170
0.280000,0.022186,-0.095049,9.803938,0.020162,-0.104243,-0.015231,0.105182,-0.139765,0.081520
0.320000,0.009805,-0.094003,9.894675,0.003990,-0.102181,0.079955,-0.018338,-0.169570,-0.079409
0.360000,-0.044680,-0.088507,9.894877,-0.042046,-0.087630,0.128735,-0.136212,-0.123449,-0.104315
0.400000,-0.091852,-0.150877,9.866254,-0.091200,-0.155749,0.077630,-0.231326,-0.101457,-0.207596
0.440000,-0.105300,-0.001048,9.861784,-0.104856,-0.016461,0.057360,-0.300574,-0.025875,-0.219048
0.480000,-0.098882,0.028799,9.718469,-0.100722,0.024132,-0.097826,-0.319934,0.014863,-0.256181
0.520000,-0.116277,0.038101,9.774750,-0.110486,0.046509,-0.015564,-0.321753,0.048225,-0.227755
0.560000,-0.081792,0.101394,9.740381,-0.092716,0.088845,-0.049317,-0.176325,0.171172,-0.161789
0.600000,0.001826,0.055969,9.770534,-0.012402,0.062764,-0.033220,-0.091714,0.249479,-0.095598
0.640000,0.012929,0.133759,9.826357,0.018240,0.134055,-0.010168,-0.060998,0.169156,0.003923
0.680000,0.057441,0.040816,9.934735,0.069128,0.045553,0.167792,0.161928,0.160194,0.098840
0.720000,0.096486,0.018170,10.351629,0.109939,0.044260,0.594660,0.257032,0.118096,0.188873
0.760000,0.123384,0.015179,10.780802,0.119335,0.013426,0.936095,0.324453,0.007955,0.222621
0.800000,0.114895,0.018954,10.851682,0.109017,-0.002773,1.072289,0.365971,-0.044263,0.262144
0.840000,0.090743,-0.042528,10.439734,0.086652,-0.045727,0.637840,0.314710,-0.077580,0.165984
0.880000,0.076836,-0.036150,9.905002,0.071884,-0.065784,0.125017,0.195912,-0.143881,0.110313
0.920000,0.041039,-0.098939,9.765522,0.046723,-0.097407,-0.038427,0.138013,-0.172868,0.123887
0.960000,-0.019089,-0.090309,9.798780,0.000812,-0.092524,-0.008497,-0.083620,-0.177785,-0.044358
1.000000,-0.060656,-0.137353,9.945804,-0.055683,-0.136310,0.103590,-0.216779,-0.159371,-0.155441
1.040000,-0.068479,-0.023692,9.947609,-0.085018,-0.024295,0.123195,-0.312568,-0.131799,-0.199897
1.080000,-0.146721,-0.046855,9.891529,-0.149369,-0.050555,0.107192,-0.326875,-0.031716,-0.219133
1.120000,-0.128400,0.012070,9.735423,-0.132645,-0.003033,-0.036417,-0.336424,0.036150,-0.228087
1.160000,-0.073469,0.001261,9.767818,-0.082517,0.009649,-0.052176,-0.324948,0.066837,-0.236287
1.200000,-0.103939,0.081899,9.774740,-0.095538,0.081812,-0.024868,-0.224780,0.158065,-0.162326
1.240000,-0.020929,0.067743,9.821960,-0.023164,0.061585,0.026423,-0.081246,0.156541,-0.067100
1.280000,0.026681,0.018384,9.815422,0.021559,0.005583,-0.018274,0.025114,0.197072,0.051034
1.320000,0.051558,0.054391,10.025904,0.060883,0.075969,0.251032,0.210299,0.150684,0.135321
1.360000,0.122540,0.009256,10.383624,0.118902,0.023240,0.580951,0.333191,0.114554,0.177777
1.400000,0.137147,0.016338,10.766949,0.124193,0.015932,0.944333,0.335826,0.042705,0.229251
1.440000,0.077943,0.021168,10.652470,0.081950,0.009975,0.866076,0.353003,-0.035418,0.237613
1.480000,0.098212,-0.078704,10.315221,0.115435,-0.073898,0.479259,0.293581,-0.089799,0.252692
1.520000,0.052920,-0.061470,9.827502,0.051194,-0.068160,0.037735,0.233516,-0.124662,0.133027
1.560000,-0.024996,-0.081954,9.738443,-0.018431,-0.101733,-0.070149,0.122616,-0.173197,0.146107
1.600000,-0.000871,-0.048548,9.792490,-0.002682,-0.048652,-0.003644,-0.084692,-0.172939,-0.060054
1.640000,-0.112482,-0.065605,9.842304,-0.104061,-0.063323,0.087106,-0.199973,-0.158423,-0.193173
1.680000,-0.111350,-0.038840,9.875330,-0.111960,-0.043559,0.073742,-0.270961,-0.151009,-0.200545
1.720000,-0.097242,-0.048768,9.786394,-0.109514,-0.050569,-0.039451,-0.335942,-0.029006,-0.215083
1.760000,-0.119307,0.043326,9.863394,-0.119029,0.040774,0.074085,-0.369296,0.003113,-0.229142
1.800000,-0.132302,0.071527,9.701810,-0.115811,0.073335,-0.095626,-0.338618,0.088823,-0.196354
1.840000,-0.088218,0.042873,9.675604,-0.091975,0.045445,-0.124067,-0.200417,0.127985,-0.140897
1.880000,-0.040133,0.073714,9.820901,-0.040332,0.083758,0.000180,-0.042482,0.156542,-0.045072
1.920000,-0.000348,0.101260,9.856543,-0.002480,0.095127,0.053738,0.074031,0.154689,-0.007651
1.960000,0.078489,0.119864,10.076016,0.068757,0.130262,0.265553,0.178779,0.157941,0.176921
2.000000,0.082311,0.043563,10.545150,0.087562,0.051734,0.734426,0.284512,0.099982,0.205132
2.040000,0.074811,-0.001964,10.769060,0.077691,0.010014,0.969529,0.400976,0.025889,0.282420
2.080000,0.096609,-0.029445,10.684031,0.106903,-0.026183,0.840239,0.302064,-0.012122,0.224812
2.120000,0.076680,-0.052318,10.251558,0.074747,-0.052578,0.462064,0.263663,-0.020052,0.194319
2.160000,0.067525,-0.058083,9.873263,0.065854,-0.047086,0.049204,0.151943,-0.142512,0.157914
2.200000,0.020810,-0.108686,9.844590,0.023407,-0.106023,0.009074,0.094084,-0.151772,0.066209
2.240000,0.013046,-0.046988,9.830620,0.005575,-0.048605,0.023386,-0.146522,-0.163907,-0.047021
2.280000,-0.067424,-0.123572,9.895928,-0.057057,-0.107879,0.084711,-0.247842,-0.119254,-0.215490
2.320000,-0.137722,-0.024668,9.855467,-0.138992,-0.017074,0.034859,-0.309413,-0.132124,-0.259862
2.360000,-0.178760,0.039696,9.783313,-0.184771,0.021650,-0.019262,-0.344883,-0.096200,-0.228089
2.400000,-0.165110,0.041820,9.708560,-0.159689,0.048907,-0.063518,-0.300371,-0.007798,-0.258717
2.440000,-0.119651,0.067470,9.698090,-0.105915,0.060385,-0.106922,-0.235548,0.098878,-0.187036
2.480000,-0.118549,0.078429,9.820715,-0.101595,0.083504,-0.022201,-0.177889,0.202234,-0.104936
2.520000,-0.024465,0.069837,9.834516,-0.026018,0.067836,0.013139,-0.013718,0.187306,-0.008012
2.560000,0.057372,0.033828,9.805111,0.040432,0.041802,-0.006432,0.108765,0.158268,0.050545
2.600000,0.057303,0.047926,10.273248,0.063400,0.066943,0.448123,0.219319,0.150849,0.197968
2.640000,0.121455,0.031722,10.635191,0.116942,0.036132,0.828079,0.346030,0.087234,0.210473
2.680000,0.077386,0.035479,10.860439,0.101640,0.031061,1.049849,0.356182,-0.033117,0.267477
2.720000,0.093348,-0.025341,10.565664,0.089615,-0.032124,0.764288,0.374741,-0.048676,0.228105
2.760000,0.127832,-0.048565,10.067316,0.138716,-0.049995,0.247766,0.268276,-0.098249,0.239868
2.800000,0.043884,-0.072235,9.754152,0.047817,-0.064461,-0.045125,0.169033,-0.101414,0.145139
2.840000,0.006662,-0.053608,9.868643,0.005874,-0.062811,0.064949,-0.075236,-0.182347,0.069184
2.880000,-0.035455,-0.053144,9.817252,-0.018848,-0.045924,-0.010327,-0.127269,-0.116547,-0.042447
2.920000,-0.026192,-0.092377,9.828271,-0.057648,-0.085770,0.022157,-0.233004,-0.140749,-0.178945
2.960000,-0.127659,-0.019752,9.861150,-0.121606,-0.009950,0.039845,-0.308003,0.000041,-0.246484
3.000000,-0.082551,-0.009647,9.767568,-0.088621,-0.005417,-0.055391,-0.304681,-0.017850,-0.284063
3.040000,-0.109163,0.047324,9.772634,-0.124090,0.050280,-0.035832,-0.305133,0.089033,-0.222479
3.080000,-0.050540,0.104445,9.747459,-0.053472,0.101512,-0.055551,-0.282271,0.137204,-0.174185
3.120000,-0.093467,-0.002398,9.745389,-0.081189,0.011131,-0.038216,-0.113684,0.212053,-0.093322
3.160000,-0.005662,0.111812,9.766865,-0.006689,0.116416,-0.021207,0.031458,0.220605,-0.019637
3.200000,0.037110,0.061526,9.960472,0.055486,0.069532,0.138290,0.123078,0.133165,0.112514
3.240000,0.094990,0.033376,10.360368,0.098300,0.029100,0.538556,0.241821,0.113131,0.170786
3.280000,0.103935,0.017786,10.608517,0.087166,0.014760,0.818314,0.350709,0.126533,0.219845
3.320000,0.056320,-0.044588,10.853272,0.070432,-0.034293,1.035344,0.348865,-0.004565,0.254697
3.360000,0.114147,-0.013915,10.525798,0.122388,-0.018837,0.711471,0.348613,-0.052222,0.223871
3.400000,0.092631,-0.091019,10.044532,0.074095,-0.090496,0.215821,0.238894,-0.165877,0.124497
3.440000,0.025999,-0.031489,9.845841,0.027741,-0.039420,-0.007469,0.048776,-0.177365,0.058585
3.480000,0.033160,-0.065546,9.845792,0.042097,-0.059085,0.024296,-0.021065,-0.200906,0.000281
3.520000,-0.058254,-0.058938,9.820845,-0.062147,-0.064842,0.024661,-0.168373,-0.133448,-0.112591
3.560000,-0.111035,-0.104708,9.838718,-0.106347,-0.113358,0.013850,-0.247274,-0.095488,-0.247525
3.600000,-0.195290,-0.063709,9.872445,-0.168131,-0.064398,0.083284,-0.320961,-0.018915,-0.216800
3.640000,-0.165668,0.025268,9.791290,-0.152063,0.004290,-0.063138,-0.377829,-0.017496,-0.250606
3.680000,-0.059500,0.041208,9.676054,-0.080070,0.036293,-0.109418,-0.304996,0.099853,-0.253403
3.720000,-0.094972,0.107463,9.719564,-0.098254,0.089835,-0.099206,-0.207791,0.139298,-0.179424
3.760000,-0.001192,0.014428,9.777146,-0.015829,-0.010791,-0.032892,-0.088609,0.098977,-0.067301
3.800000,-0.036524,0.040058,9.799527,-0.026232,0.056787,-0.002199,0.065129,0.192910,-0.040127
3.840000,0.031184,0.106734,9.950864,0.031735,0.095217,0.150396,0.137176,0.196495,0.133054
3.880000,0.065513,0.044739,10.434558,0.067202,0.039575,0.597322,0.268844,0.158929,0.225526
3.920000,0.124409,0.009928,10.742951,0.129882,0.007494,0.921622,0.269503,0.047345,0.267508
3.960000,0.114799,-0.065002,10.731648,0.112696,-0.058394,0.924695,0.381876,0.002327,0.282656
4.000000,0.059456,-0.017157,10.440666,0.070604,-0.008244,0.596022,0.306007,-0.073639,0.193108
4.040000,0.106081,-0.088803,9.953922,0.093986,-0.078271,0.146296,0.208256,-0.166179,0.182169
4.080000,0.049344,-0.022443,9.802687,0.044672,-0.044676,-0.022011,0.083200,-0.201245,0.070342
4.120000,-0.009058,-0.030295,9.824052,-0.007317,-0.035169,0.040860,-0.036722,-0.179505,-0.061580
4.160000,-0.051973,-0.042507,9.849659,-0.053306,-0.028915,0.065398,-0.150089,-0.161038,-0.115503
4.200000,-0.125725,-0.058521,9.934068,-0.122701,-0.047995,0.109873,-0.291891,-0.103155,-0.189162
4.240000,-0.096307,-0.053045,9.794596,-0.079072,-0.032793,-0.021565,-0.328467,-0.053635,-0.197179
4.280000,-0.131257,0.008683,9.876277,-0.121351,-0.003227,0.023342,-0.333163,0.036392,-0.210584
4.320000,-0.095080,0.102369,9.686980,-0.093279,0.101916,-0.108914,-0.361469,0.064457,-0.231799
4.360000,-0.060526,0.064427,9.683066,-0.056998,0.059335,-0.140448,-0.220990,0.193513,-0.132458
4.400000,-0.046821,0.109871,9.741014,-0.053296,0.109847,-0.064072,-0.059704,0.121469,-0.042079
4.440000,0.084981,0.102533,9.849013,0.079377,0.093055,0.022048,0.102599,0.174381,0.054384
4.480000,0.059997,0.050319,10.039198,0.065595,0.054288,0.213821,0.234459,0.143818,0.129203
4.520000,0.091383,0.039634,10.422438,0.100952,0.036680,0.612988,0.254782,0.095547,0.260871
4.560000,0.113047,0.053233,10.812860,0.105499,0.050492,1.017670,0.373783,0.008410,0.226878
4.600000,0.153770,-0.027298,10.671716,0.151877,-0.015695,0.868501,0.373346,-0.082756,0.294528
4.640000,0.128087,-0.066502,10.176140,0.134303,-0.059272,0.388395,0.299784,-0.095518,0.162543
4.680000,0.057628,-0.094781,9.884733,0.069048,-0.091752,0.067438,0.126944,-0.158126,0.122514
4.720000,-0.030721,-0.066068,9.813967,-0.023963,-0.069278,0.060144,0.042255,-0.165945,0.064629
4.760000,-0.028416,-0.079496,9.791387,-0.032336,-0.093380,-0.006991,-0.076673,-0.224743,-0.088673
4.800000,-0.055616,-0.045747,9.868181,-0.072484,-0.046905,0.040099,-0.212803,-0.094126,-0.168996
4.840000,-0.118312,0.034005,9.882353,-0.116193,0.034882,0.054749,-0.364435,-0.095640,-0.197792
4.880000,-0.156543,0.006956,9.862649,-0.148213,0.003856,0.084891,-0.354084,-0.117545,-0.299170
4.920000,-0.141285,0.072448,9.768737,-0.162857,0.074018,-0.052921,-0.366924,0.050428,-0.209002
4.960000,-0.055168,0.026696,9.669190,-0.051449,0.026923,-0.117986,-0.261061,0.094670,-0.154776
5.000000,-0.045693,0.104960,9.747675,-0.037752,0.089801,-0.054759,-0.160602,0.121888,-0.079356
5.040000,-0.018080,0.114808,9.816970,-0.014006,0.117038,-0.008349,-0.028174,0.215541,-0.021567
5.080000,0.008206,0.121067,9.870853,0.012777,0.118448,0.080356,0.083041,0.201261,0.054396
5.120000,0.098047,0.094624,10.113586,0.085341,0.101074,0.275048,0.218010,0.151318,0.144414
5.160000,0.094543,0.051646,10.533033,0.111281,0.039038,0.717894,0.304190,0.089026,0.227697
5.200000,0.113253,0.025946,10.864569,0.107308,0.035060,1.045315,0.375492,0.033961,0.252518
5.240000,0.126459,-0.054369,10.680979,0.126569,-0.053650,0.849435,0.319062,-0.099363,0.227923
5.280000,0.102266,0.007045,10.239020,0.107833,-0.002780,0.411210,0.246964,-0.108986,0.240147
5.320000,0.072857,-0.108121,9.857652,0.076216,-0.099461,0.031587,0.191000,-0.122389,0.108439
5.360000,-0.019110,-0.033416,9.826345,-0.016603,-0.042095,0.029499,0.053913,-0.148167,0.064038
5.400000,-0.023263,-0.065269,9.846530,-0.024144,-0.044778,0.058749,-0.094178,-0.202708,-0.074257
5.440000,-0.047597,-0.040363,9.862555,-0.043083,-0.029444,0.058200,-0.181317,-0.130692,-0.162218
5.480000,-0.099249,0.025455,9.913029,-0.098594,0.026397,0.093541,-0.250847,-0.113718,-0.208387
5.520000,-0.061290,0.050645,9.759312,-0.053517,0.026549,-0.024976,-0.312390,-0.006591,-0.234355
5.560000,-0.096918,-0.012034,9.833707,-0.118737,-0.013488,0.012050,-0.352952,0.036630,-0.240431
5.600000,-0.130616,0.072894,9.778253,-0.140709,0.071226,-0.039237,-0.235168,0.094343,-0.168846
5.640000,-0.071675,0.027183,9.733015,-0.076560,0.015705,-0.073349,-0.145716,0.173612,-0.085818
5.680000,-0.029542,0.066332,9.797137,-0.025104,0.077196,-0.014093,-0.031526,0.158069,0.039128
5.720000,0.066801,0.031977,9.911223,0.058586,0.062310,0.099921,0.099766,0.144870,0.089283
5.760000,0.110093,0.094791,10.212542,0.107101,0.077453,0.393710,0.247670,0.141763,0.147712
5.800000,0.114899,0.013895,10.699553,0.113709,0.007849,0.874625,0.344246,0.028768,0.208057
5.840000,0.123421,-0.026567,10.848570,0.128752,-0.022114,0.981142,0.391303,-0.005891,0.320983
5.880000,0.171771,-0.013841,10.502293,0.169025,-0.014414,0.688912,0.345645,-0.112374,0.176051
5.920000,0.077640,-0.010209,10.071507,0.060804,-0.020730,0.274389,0.267283,-0.166590,0.142920
5.960000,0.045122,-0.074963,9.803013,0.044316,-0.073670,0.031136,0.129454,-0.130814,0.097658
6.000000,-0.016209,-0.008860,9.822428,-0.013573,-0.010309,0.040587,0.006496,-0.192491,-0.018454
6.040000,-0.080726,-0.063694,9.856563,-0.081718,-0.084047,0.061710,-0.180477,-0.187453,-0.072313
6.080000,-0.146047,-0.048017,9.878418,-0.146484,-0.035581,0.054629,-0.233108,-0.100411,-0.156676
6.120000,-0.078149,-0.014040,9.855103,-0.072678,-0.019212,0.053000,-0.312470,-0.017783,-0.248484
6.160000,-0.150312,-0.020827,9.788578,-0.142900,-0.008607,-0.029556,-0.292497,0.011319,-0.204833
6.200000,-0.109205,0.087513,9.643696,-0.117137,0.071881,-0.151663,-0.320932,0.103834,-0.261486
6.240000,-0.057174,0.034539,9.705185,-0.069228,0.031608,-0.113924,-0.203853,0.114666,-0.193254
6.280000,-0.054870,0.005839,9.795590,-0.077528,0.012707,-0.031858,-0.136232,0.170342,-0.039969
6.320000,-0.015425,0.061140,9.797897,-0.020007,0.076146,-0.004059,0.065567,0.180062,-0.028694
6.360000,0.051608,0.061178,9.945187,0.050441,0.064680,0.126488,0.192507,0.172584,0.116851
6.400000,0.085047,0.087272,10.335439,0.076029,0.085416,0.534247,0.294059,0.149383,0.232834
6.440000,0.065968,0.000401,10.638734,0.075048,-0.011183,0.853372,0.332339,0.015110,0.158117
6.480000,0.144405,-0.000248,10.770491,0.137979,0.010688,0.949417,0.342642,-0.038006,0.239376
6.520000,0.103946,-0.031737,10.486399,0.093558,-0.023491,0.668144,0.302370,-0.094593,0.252355
6.560000,0.092755,-0.055846,9.993237,0.082513,-0.050876,0.171368,0.199515,-0.165364,0.155254
6.600000,0.055463,-0.052514,9.782923,0.038790,-0.044762,-0.046188,0.122185,-0.164296,0.079033
6.640000,0.013063,-0.085569,9.880335,0.019047,-0.080423,0.075311,-0.036738,-0.172848,-0.015279
6.680000,-0.049927,-0.078783,9.829307,-0.045003,-0.069331,0.022810,-0.150673,-0.157758,-0.106442
6.720000,-0.120491,-0.033314,9.853585,-0.118340,-0.037486,0.049283,-0.264585,-0.126817,-0.216804
6.760000,-0.091168,-0.031011,9.878733,-0.080012,-0.026181,0.061827,-0.367274,-0.011593,-0.216343
6.800000,-0.128157,-0.032128,9.788636,-0.133541,-0.032236,-0.018589,-0.316244,0.025314,-0.240980
6.840000,-0.122821,0.029269,9.690033,-0.129573,0.026226,-0.122485,-0.303825,0.082209,-0.253459
6.880000,-0.097783,0.041133,9.789061,-0.103398,0.054927,-0.006526,-0.191536,0.143061,-0.169257
6.920000,-0.101082,0.066117,9.716235,-0.102576,0.060181,-0.073213,-0.129083,0.195699,-0.109625
6.960000,0.006844,0.071969,9.803868,-0.003214,0.069874,0.012043,0.020949,0.184999,0.037749
7.000000,0.077652,0.076775,10.030087,0.071900,0.074670,0.211755,0.163229,0.129959,0.139720
7.040000,0.048702,0.038817,10.478057,0.054728,0.040150,0.668914,0.286073,0.161713,0.205497
7.080000,0.137989,0.042819,10.730959,0.167488,0.045514,0.930830,0.335897,0.058623,0.258641
7.120000,0.048184,0.014939,10.731529,0.051492,0.014401,0.908262,0.387176,-0.060855,0.251322
7.160000,0.079538,-0.111849,10.413995,0.079148,-0.112806,0.574838,0.330416,-0.147721,0.236705
7.200000,0.026382,-0.119518,10.010620,0.025908,-0.107716,0.210516,0.183797,-0.124959,0.143109
7.240000,0.053152,-0.134276,9.770095,0.054944,-0.150029,-0.018225,0.168311,-0.136467,0.078142
7.280000,-0.005806,-0.094052,9.843793,-0.000437,-0.087094,0.014891,-0.060914,-0.163919,-0.080268
7.320000,-0.080748,-0.076959,9.898347,-0.072280,-0.077626,0.088038,-0.148803,-0.133599,-0.175874
7.360000,-0.151521,-0.029476,9.798300,-0.141191,-0.041128,-0.008032,-0.295939,-0.083592,-0.202689
7.400000,-0.148982,0.005225,9.838293,-0.153332,0.008643,0.007938,-0.323610,-0.037281,-0.224003
7.440000,-0.099492,0.016078,9.702287,-0.110375,0.013708,-0.102462,-0.315304,-0.016716,-0.253875
7.480000,-0.132747,0.004272,9.729792,-0.120235,0.026185,-0.088149,-0.336651,0.078644,-0.189087
7.520000,-0.083881,0.046686,9.718937,-0.083268,0.066504,-0.094268,-0.141279,0.173763,-0.129052
7.560000,-0.016811,0.063510,9.739939,-0.024698,0.063766,-0.134951,-0.089023,0.194393,-0.108311
7.600000,0.010683,0.035826,9.856010,0.012572,0.033931,0.048696,0.062296,0.170198,0.121679
7.640000,0.023156,0.105487,10.114333,0.015996,0.094426,0.285596,0.181595,0.131362,0.104918
7.680000,0.072176,0.063615,10.471549,0.061393,0.055603,0.666562,0.278498,0.101665,0.182740
7.720000,0.083063,0.040889,10.742748,0.079119,0.056809,0.923747,0.329495,0.019724,0.280986
7.760000,0.090046,-0.042696,10.743931,0.095003,-0.055379,0.937851,0.304933,-0.043489,0.243987
7.800000,0.112935,-0.107371,10.355218,0.099785,-0.095466,0.529310,0.305993,-0.101834,0.179220
7.840000,0.060956,-0.087880,9.892211,0.063630,-0.096508,0.084125,0.184767,-0.177282,0.115419
7.880000,0.050454,-0.071693,9.785899,0.053128,-0.067176,-0.034171,0.046980,-0.154067,0.010107
7.920000,-0.066905,-0.024560,9.819777,-0.072054,-0.051718,0.024897,-0.056559,-0.179286,-0.086181
7.960000,-0.066374,-0.061038,9.888454,-0.063359,-0.055134,0.094387,-0.158617,-0.128748,-0.127471
8.000000,-0.129759,-0.036432,9.845241,-0.127521,-0.035691,0.072882,-0.349910,-0.088096,-0.231450
8.040000,-0.063526,0.017192,9.854632,-0.059788,0.015609,0.037316,-0.298533,0.023708,-0.280082
8.080000,-0.120563,0.005306,9.773576,-0.118757,0.007731,-0.023444,-0.337802,0.064693,-0.263591
8.120000,-0.108922,0.071414,9.746496,-0.110891,0.081385,-0.107414,-0.314821,0.124034,-0.200584
8.160000,-0.069308,0.151696,9.700093,-0.049581,0.129655,-0.100461,-0.156233,0.168874,-0.142911
8.200000,-0.007611,0.041573,9.807080,-0.006631,0.047679,-0.027848,-0.040092,0.241533,-0.035372
8.240000,0.005636,0.062499,9.920005,0.023285,0.068964,0.087118,0.126977,0.170994,0.082702
8.280000,0.090243,0.018852,10.080278,0.094309,0.019946,0.275198,0.227460,0.143610,0.144931
8.320000,0.155037,0.010041,10.547797,0.151656,0.008108,0.752531,0.320875,0.086537,0.195759
8.360000,0.143850,0.011622,10.808724,0.147124,0.018471,1.001417,0.335716,-0.043918,0.228219
8.400000,0.116689,-0.065755,10.626443,0.109660,-0.075290,0.793745,0.302017,-0.052833,0.279528
8.440000,0.147616,-0.074134,10.266466,0.144139,-0.075661,0.410757,0.287201,-0.087127,0.254497
8.480000,0.046259,-0.039847,9.858767,0.067819,-0.040048,0.073463,0.139874,-0.145785,0.112542
8.520000,-0.013417,-0.067558,9.817129,-0.025397,-0.073139,0.006843,0.034048,-0.134313,0.037445
8.560000,-0.035320,-0.060996,9.918417,-0.037817,-0.052510,0.120508,-0.070528,-0.146421,-0.110414
8.600000,-0.092491,-0.104108,9.917461,-0.086798,-0.098258,0.114696,-0.238989,-0.118705,-0.184987
8.640000,-0.129519,-0.032251,9.911143,-0.124821,-0.032031,0.067006,-0.295687,-0.049975,-0.212708
8.680000,-0.131310,0.062551,9.782226,-0.110464,0.053252,-0.012383,-0.350611,0.003405,-0.320690
8.720000,-0.166666,0.005590,9.709768,-0.168844,0.008029,-0.068084,-0.338988,0.054324,-0.211142
8.760000,-0.032871,0.036952,9.749419,-0.039383,0.040123,-0.064622,-0.302010,0.119363,-0.199179
8.800000,-0.037250,0.069451,9.743268,-0.030450,0.090535,-0.074323,-0.143540,0.092947,-0.134020
8.840000,-0.066804,0.046052,9.737551,-0.057755,0.052988,-0.064028,-0.012257,0.227812,0.006410
8.880000,0.063583,0.079394,9.885796,0.062177,0.095900,0.089423,0.102720,0.161411,0.135304
8.920000,0.109204,-0.010756,10.276799,0.097258,0.003258,0.463592,0.183830,0.097301,0.165525
8.960000,0.165491,-0.038110,10.520625,0.154583,-0.041768,0.737624,0.272547,0.058763,0.239230
9.000000,0.180010,0.042622,10.874557,0.171721,0.009433,1.056122,0.403557,0.052715,0.263610
9.040000,0.187601,-0.058454,10.552279,0.167400,-0.060396,0.749233,0.323786,-0.067597,0.237666
9.080000,0.084869,-0.070803,10.090886,0.075626,-0.074130,0.253146,0.201796,-0.120896,0.145015
9.120000,0.071966,-0.055688,9.822997,0.060399,-0.048083,0.006629,0.110780,-0.104774,0.098737
9.160000,-0.016054,-0.071740,9.848725,-0.016925,-0.061256,0.041794,-0.007026,-0.154898,0.000289
9.200000,-0.022922,-0.089342,9.866194,-0.019456,-0.109903,0.060788,-0.128892,-0.173084,-0.183575
9.240000,-0.140973,-0.047226,9.889114,-0.152320,-0.039172,0.117788,-0.262136,-0.174213,-0.156515
9.280000,-0.160546,-0.056891,9.893824,-0.150736,-0.036892,0.086307,-0.267412,-0.043572,-0.279430
9.320000,-0.128673,0.018318,9.806247,-0.132911,0.015863,0.000312,-0.287642,-0.012809,-0.245933
9.360000,-0.116465,0.029160,9.704959,-0.110386,0.033458,-0.106070,-0.305200,0.096438,-0.180674
9.400000,-0.071999,0.020306,9.722722,-0.075391,0.014348,-0.083472,-0.245183,0.132320,-0.174597
9.440000,0.001446,0.069832,9.707221,-0.001233,0.054156,-0.131345,-0.103626,0.182251,-0.113600
9.480000,-0.010338,0.011169,9.832724,-0.011967,0.007479,0.028102,-0.017890,0.206520,0.032472
9.520000,0.014415,0.079481,9.927961,0.014592,0.077212,0.134839,0.185607,0.109350,0.153216
9.560000,0.084538,0.070777,10.265026,0.079213,0.064181,0.488320,0.270100,0.121477,0.155991
9.600000,0.102873,0.030636,10.734563,0.095945,0.003589,0.933482,0.296659,0.055077,0.166976
9.640000,0.122186,0.012620,10.714416,0.136175,-0.010166,0.925357,0.331245,-0.006424,0.284603
9.680000,0.151641,-0.069445,10.418820,0.152094,-0.066286,0.634779,0.327375,-0.068262,0.247176
9.720000,0.115360,-0.014451,9.970581,0.119541,-0.023949,0.166816,0.173143,-0.134132,0.170903
9.760000,0.069308,-0.097303,9.805423,0.067367,-0.115164,-0.027342,0.074356,-0.191753,0.018263
9.800000,-0.033791,-0.081958,9.856705,-0.029630,-0.088893,0.028004,-0.050561,-0.212896,-0.008202
9.840000,-0.049912,-0.109716,9.924844,-0.062663,-0.109053,0.140484,-0.139357,-0.205366,-0.089432
9.880000,-0.081988,-0.047625,9.904560,-0.081305,-0.042647,0.093826,-0.222862,-0.108216,-0.131231
9.920000,-0.128833,0.010619,9.914236,-0.138698,0.009632,0.095773,-0.325745,-0.032604,-0.249234
9.960000,-0.148899,-0.063651,9.857618,-0.139378,-0.052253,0.035924,-0.442046,0.012300,-0.243257
10.000000,-0.095496,0.068574,9.803578,-0.092689,0.059621,-0.038495,-0.336612,0.114922,-0.281086
10.040000,-0.119632,0.126578,9.635797,-0.113485,0.112669,-0.150809,-0.106740,0.139941,-0.122099
10.080000,0.006872,0.077386,9.744157,0.002935,0.081356,-0.048127,-0.082319,0.171776,-0.033846
10.120000,-0.006366,0.054394,9.779362,0.005484,0.058899,-0.017385,-0.027063,0.134922,0.048636
10.160000,0.061292,0.056726,10.141783,0.078380,0.067287,0.324456,0.252493,0.140665,0.165136
10.200000,0.097030,0.035324,10.321005,0.103286,0.030654,0.565442,0.243076,0.133422,0.178801
10.240000,0.160066,0.077088,10.703920,0.154455,0.077197,0.898494,0.357957,0.083030,0.236851
10.280000,0.046377,-0.002725,10.595802,0.054474,0.011708,0.821450,0.310710,-0.035728,0.241127
10.320000,0.141788,0.013297,10.298029,0.139133,-0.015852,0.488076,0.361580,-0.070435,0.244058
10.360000,0.099156,-0.018824,9.967222,0.105629,-0.001041,0.115821,0.157243,-0.105374,0.176328
10.400000,0.015858,-0.052313,9.847959,0.033386,-0.037915,0.019938,0.055210,-0.204188,0.061509
10.440000,0.001673,-0.072830,9.772118,-0.006847,-0.082225,-0.013357,-0.034114,-0.167288,-0.038886
10.480000,-0.042022,-0.059302,9.922235,-0.048516,-0.065873,0.120608,-0.210281,-0.144216,-0.121820
10.520000,-0.127382,0.019379,9.863406,-0.126983,0.026522,0.071201,-0.276932,-0.067360,-0.218325
10.560000,-0.115821,-0.044956,9.845925,-0.116250,-0.037169,0.010033,-0.318880,-0.058782,-0.204721
10.600000,-0.092753,0.016063,9.740338,-0.090677,0.011484,-0.025625,-0.337038,0.046895,-0.258095
10.640000,-0.162492,0.019051,9.782936,-0.152166,0.015270,-0.018280,-0.320735,0.094979,-0.192401
10.680000,-0.037108,0.005960,9.725727,-0.050168,0.012999,-0.070342,-0.211150,0.164728,-0.151845
10.720000,-0.018406,0.062426,9.715896,-0.017400,0.052487,-0.070640,-0.069872,0.214121,-0.013287
10.760000,0.049839,0.057801,9.907614,0.046223,0.052082,0.064444,0.097544,0.219563,0.054100
10.800000,0.027389,0.059333,10.074161,0.032377,0.045968,0.295485,0.230076,0.182528,0.208943
10.840000,0.084763,0.059312,10.475225,0.080334,0.059810,0.689111,0.305531,0.063537,0.210047
10.880000,0.088280,0.019432,10.874056,0.076829,0.011330,1.032145,0.367310,0.012107,0.275439
10.920000,0.075690,0.008152,10.586582,0.074023,0.010435,0.778573,0.291255,-0.014573,0.223231
10.960000,0.124116,-0.038428,10.249086,0.120511,-0.043839,0.442596,0.287717,-0.090683,0.189915
11.000000,0.051114,-0.060332,9.884585,0.042334,-0.063910,0.087092,0.173053,-0.163766,0.123739
11.040000,0.002242,-0.079629,9.734077,-0.004831,-0.088110,-0.075879,0.058723,-0.206074,0.041875
11.080000,0.010890,-0.013449,9.783529,0.000448,-0.018644,-0.017888,-0.071554,-0.290573,-0.089625
11.120000,-0.081634,-0.094285,9.913119,-0.084842,-0.075397,0.117811,-0.248935,-0.188890,-0.172411
11.160000,-0.073042,-0.017305,9.896496,-0.076245,-0.011040,0.114524,-0.310007,-0.095880,-0.216398
11.200000,-0.148430,-0.042997,9.881829,-0.150824,-0.043828,0.071024,-0.308048,-0.027524,-0.236670
11.240000,-0.116619,0.020482,9.726068,-0.125266,0.015819,-0.071991,-0.325943,0.064358,-0.240419
11.280000,-0.123949,0.119470,9.730077,-0.119632,0.111221,-0.070540,-0.272687,0.132785,-0.198011
11.320000,-0.033853,0.096934,9.770832,-0.039159,0.091447,-0.052361,-0.198690,0.227287,-0.155645
11.360000,0.006725,0.030681,9.718256,-0.016249,0.037728,-0.081630,-0.013002,0.156274,-0.005908
11.400000,0.062605,0.054310,9.890624,0.059016,0.045129,0.082822,0.066448,0.112655,0.102540
11.440000,0.071025,0.100533,10.207148,0.082996,0.108624,0.363674,0.223345,0.108392,0.192191
11.480000,0.046205,0.050854,10.629837,0.049106,0.038221,0.812164,0.298762,0.130336,0.228432
11.520000,0.118049,0.010066,10.780461,0.111841,-0.003234,0.981256,0.361112,0.011689,0.231407
11.560000,0.060556,-0.049781,10.630622,0.067262,-0.049680,0.842565,0.312571,-0.028825,0.226440
11.600000,0.089794,-0.069533,10.141412,0.099572,-0.063053,0.334064,0.250247,-0.137329,0.190415
11.640000,0.053956,-0.036930,9.909691,0.067749,-0.029970,0.083936,0.121701,-0.177911,0.105882
11.680000,0.022709,-0.111870,9.821441,0.024792,-0.100931,0.023244,0.007203,-0.231268,-0.014886
11.720000,-0.029397,-0.102269,9.872515,-0.045514,-0.093043,0.063382,-0.115558,-0.178633,-0.137613
11.760000,-0.136421,-0.042136,9.830255,-0.131109,-0.040331,0.032566,-0.250013,-0.130888,-0.187805
11.800000,-0.094580,-0.069324,9.808497,-0.103338,-0.063730,0.006652,-0.329146,-0.047187,-0.236693
11.840000,-0.110550,-0.045824,9.851837,-0.107759,-0.029725,0.067385,-0.344987,0.013062,-0.240671
11.880000,-0.120922,0.024803,9.794553,-0.117050,0.029639,-0.019655,-0.295389,0.125875,-0.244735
11.920000,-0.078003,0.057843,9.720288,-0.083172,0.056914,-0.091386,-0.227727,0.121325,-0.186163
11.960000,-0.118477,0.046081,9.764451,-0.103140,0.049472,-0.073830,-0.174444,0.173211,-0.093530
12.000000,0.018681,0.085246,9.819742,0.001987,0.094195,0.008875,0.023022,0.179532,0.047000
12.040000,0.048623,0.056402,9.855982,0.043250,0.080313,0.061543,0.176666,0.145082,0.091888
12.080000,0.059869,0.008222,10.263730,0.049355,-0.003232,0.425993,0.271236,0.138229,0.132158
12.120000,0.124843,0.052469,10.699019,0.127421,0.052865,0.883042,0.253016,0.057991,0.211909
12.160000,0.110110,-0.015556,10.838315,0.105146,-0.018763,1.025844,0.357866,0.046126,0.304185
12.200000,0.125827,-0.006549,10.496636,0.116499,-0.008357,0.688238,0.361245,-0.096896,0.271410
12.240000,0.095880,0.009047,10.116650,0.096787,0.004073,0.304950,0.226133,-0.141409,0.199325
12.280000,0.042961,-0.074589,9.823242,0.051693,-0.076995,0.031878,0.209005,-0.206023,0.108189
12.320000,-0.054680,-0.098290,9.782884,-0.045249,-0.099276,-0.024056,-0.080064,-0.169691,0.010920
12.360000,-0.066845,-0.023389,9.814798,-0.062617,-0.031022,0.010609,-0.144638,-0.202694,-0.113614
12.400000,-0.023024,-0.068925,9.919054,-0.025294,-0.078704,0.103344,-0.238399,-0.120687,-0.159767
12.440000,-0.073087,0.044297,9.862594,-0.071459,0.030464,0.031689,-0.325369,-0.094264,-0.208908
12.480000,-0.099622,-0.017203,9.792268,-0.094728,-0.008883,-0.035628,-0.344689,-0.018206,-0.224173
12.520000,-0.092475,0.019257,9.763994,-0.099256,0.016763,-0.054807,-0.344703,0.057086,-0.241887
12.560000,-0.112663,0.115483,9.723739,-0.108052,0.131536,-0.050367,-0.245957,0.158144,-0.173096
12.600000,-0.047927,0.082161,9.784533,-0.041951,0.086975,-0.015346,-0.090946,0.168353,-0.096507
12.640000,0.006762,0.126409,9.788270,-0.002632,0.128378,0.016135,-0.034125,0.175686,0.050828
12.680000,0.058560,0.077519,9.903598,0.053055,0.070109,0.073379,0.189313,0.176390,0.124918
12.720000,0.036817,0.046895,10.380374,0.049067,0.048073,0.574206,0.266258,0.094934,0.204393
12.760000,0.130205,-0.057905,10.695007,0.143513,-0.064633,0.889374,0.351630,-0.006947,0.256597
12.800000,0.027671,0.018538,10.774221,0.038748,0.021989,0.979358,0.373474,-0.051783,0.206270
12.840000,0.130564,-0.032760,10.434354,0.130870,-0.026983,0.600495,0.418615,-0.095293,0.245532
12.880000,0.112609,-0.074071,10.062142,0.100825,-0.066050,0.251530,0.259363,-0.142533,0.139061
12.920000,0.116549,-0.052389,9.866613,0.102076,-0.059296,0.060321,0.058070,-0.156607,0.053731
12.960000,-0.015029,-0.082004,9.812601,-0.022534,-0.078220,0.001516,0.020985,-0.182938,-0.056405
13.000000,-0.056471,-0.121849,9.828117,-0.075600,-0.097584,0.015497,-0.256400,-0.125377,-0.122600
13.040000,-0.089957,-0.031131,9.832282,-0.091973,-0.037489,0.026396,-0.292098,-0.097982,-0.201137
13.080000,-0.088345,-0.034909,9.883235,-0.099435,-0.025616,0.049403,-0.333796,-0.087008,-0.283878
13.120000,-0.127132,0.035850,9.788914,-0.121420,0.033918,-0.044712,-0.355965,-0.050124,-0.300991
13.160000,-0.153696,0.021743,9.695118,-0.138135,0.033034,-0.115341,-0.290925,0.063023,-0.219916
13.200000,-0.056865,0.050809,9.695996,-0.053778,0.050661,-0.097031,-0.210787,0.149758,-0.122527
13.240000,-0.028673,0.032856,9.797598,-0.027422,0.061560,-0.017523,-0.041380,0.186376,-0.035564
13.280000,0.015615,0.052023,9.824495,-0.010233,0.052360,0.027817,0.043902,0.174316,0.071711
13.320000,0.015550,0.043118,10.044056,0.015554,0.051870,0.206932,0.184070,0.155586,0.128024
13.360000,0.162427,0.045937,10.454397,0.172605,0.058614,0.614397,0.340547,0.142345,0.194677
13.400000,0.151985,0.001784,10.784923,0.142339,-0.005858,0.961927,0.371395,0.037845,0.241205
13.440000,0.127060,-0.051440,10.712633,0.134656,-0.050253,0.927253,0.338704,-0.023233,0.269706
13.480000,0.097937,-0.023031,10.314623,0.096501,-0.020589,0.515348,0.305692,-0.051715,0.256608
13.520000,0.095879,-0.078022,9.834375,0.087107,-0.070779,0.029787,0.249867,-0.204266,0.124537
13.560000,-0.018399,-0.046597,9.775584,-0.009083,-0.055543,-0.016203,0.024046,-0.125521,0.038871
13.600000,-0.003793,-0.089208,9.820600,-0.018967,-0.084860,0.018057,-0.105393,-0.252841,-0.051051
13.640000,-0.049928,-0.067967,9.847689,-0.061196,-0.082845,0.034431,-0.216988,-0.172588,-0.150636
13.680000,-0.128613,-0.082867,9.876629,-0.132145,-0.095163,0.057478,-0.288999,-0.113223,-0.228503
13.720000,-0.103936,-0.032986,9.906922,-0.121453,-0.047239,0.072555,-0.316047,-0.079017,-0.250269
13.760000,-0.133035,0.001769,9.804955,-0.129212,-0.007911,-0.003226,-0.363699,0.036157,-0.267115
13.800000,-0.112059,0.049388,9.730419,-0.120001,0.055451,-0.072196,-0.311405,0.104266,-0.180487
13.840000,-0.075541,0.065684,9.676077,-0.078329,0.065159,-0.106780,-0.220659,0.176167,-0.085291
13.880000,-0.075114,0.046346,9.738060,-0.068736,0.048377,-0.077508,-0.079397,0.199304,-0.045039
13.920000,0.055649,0.002446,9.815818,0.061727,-0.005936,0.016248,0.067369,0.179552,0.112065
13.960000,0.139732,0.077495,10.103006,0.119422,0.077601,0.298547,0.146706,0.176928,0.147912
